[{"rt":3929.355000029318,"stimulus":"audio/actual/s7-lecture-10_jean_saigne_beaucoup-8_cut1norm.mp3","button_pressed":"0","test_part":"test","phrase":"10","condition":"lecture","subject":"s7","trial_type":"audio-button-response","trial_index":1,"time_elapsed":9376,"internal_node_id":"0.0-1.0-0.0"},{"rt":3747.9700000258163,"stimulus":"audio/actual/s5-imitation-10_jean_saigne_beaucoup-10_cut1norm.mp3","button_pressed":"0","test_part":"test","phrase":"10","condition":"imitation","subject":"s5","trial_type":"audio-button-response","trial_index":3,"time_elapsed":14303,"internal_node_id":"0.0-1.0-0.1"},{"rt":1887.0899999747053,"stimulus":"audio/actual/s1-imitation-10bis_jenseigne_beaucoup-10_cut1norm.mp3","button_pressed":"1","test_part":"test","phrase":"10bis","condition":"imitation","subject":"s1","trial_type":"audio-button-response","trial_index":5,"time_elapsed":16798,"internal_node_id":"0.0-1.0-0.2"},{"rt":2619.120000046678,"stimulus":"audio/actual/s6-lecture-10bis_jenseigne_beaucoup-0_cut1norm.mp3","button_pressed":"1","test_part":"test","phrase":"10bis","condition":"lecture","subject":"s6","trial_type":"audio-button-response","trial_index":7,"time_elapsed":20234,"internal_node_id":"0.0-1.0-0.3"},{"rt":3778.4349999856204,"stimulus":"audio/actual/s1-lecture-10_jean_saigne_beaucoup-2_cut1norm.mp3","button_pressed":"0","test_part":"test","phrase":"10","condition":"lecture","subject":"s1","trial_type":"audio-button-response","trial_index":9,"time_elapsed":24848,"internal_node_id":"0.0-1.0-0.4"},{"rt":3003.385000047274,"stimulus":"audio/actual/s5-lecture-10bis_jenseigne_beaucoup-4_cut1norm.mp3","button_pressed":"1","test_part":"test","phrase":"10bis","condition":"lecture","subject":"s5","trial_type":"audio-button-response","trial_index":11,"time_elapsed":28715,"internal_node_id":"0.0-1.0-0.5"},{"rt":3493.0200000526384,"stimulus":"audio/actual/s6-blind-10bis_jenseigne_beaucoup.mp3","button_pressed":"0","test_part":"test","phrase":"10bis","condition":"blind","subject":"s6","trial_type":"audio-button-response","trial_index":13,"time_elapsed":32905,"internal_node_id":"0.0-1.0-0.6"},{"rt":2295.460000052117,"stimulus":"audio/actual/s4-imitation-10bis_jenseigne_beaucoup-0_cut1norm.mp3","button_pressed":"1","test_part":"test","phrase":"10bis","condition":"imitation","subject":"s4","trial_type":"audio-button-response","trial_index":15,"time_elapsed":35939,"internal_node_id":"0.0-1.0-0.7"},{"rt":6969.415000057779,"stimulus":"audio/actual/s10-blind-10_jean_saigne_beaucoup.mp3","button_pressed":"0","test_part":"test","phrase":"10","condition":"blind","subject":"s10","trial_type":"audio-button-response","trial_index":17,"time_elapsed":43532,"internal_node_id":"0.0-1.0-0.8"},{"rt":9317.695000092499,"stimulus":"audio/actual/s2-guide-10_jean_saigne_beaucoup.mp3","button_pressed":"2","test_part":"test","phrase":"10","condition":"guide","subject":"s2","trial_type":"audio-button-response","trial_index":19,"time_elapsed":53418,"internal_node_id":"0.0-1.0-0.9"},{"rt":3200.654999935068,"stimulus":"audio/actual/s2-guide-10_jean_saigne_beaucoup.mp3","button_pressed":"1","test_part":"test","phrase":"10","condition":"guide","subject":"s2","trial_type":"audio-button-response","trial_index":20,"time_elapsed":56620,"internal_node_id":"0.0-1.0-1.9-0.9"},{"rt":2352.074999944307,"stimulus":"audio/actual/s3-guide-10bis_jenseigne_beaucoup.mp3","button_pressed":"1","test_part":"test","phrase":"10bis","condition":"guide","subject":"s3","trial_type":"audio-button-response","trial_index":22,"time_elapsed":60251,"internal_node_id":"0.0-1.0-0.10"},{"rt":2165.9350000554696,"stimulus":"audio/actual/s8-imitation-10_jean_saigne_beaucoup-10_cut1norm.mp3","button_pressed":"0","test_part":"test","phrase":"10","condition":"imitation","subject":"s8","trial_type":"audio-button-response","trial_index":24,"time_elapsed":63084,"internal_node_id":"0.0-1.0-0.11"},{"rt":2686.960000079125,"stimulus":"audio/actual/s5-blind-10_jean_saigne_beaucoup.mp3","button_pressed":"0","test_part":"test","phrase":"10","condition":"blind","subject":"s5","trial_type":"audio-button-response","trial_index":26,"time_elapsed":66468,"internal_node_id":"0.0-1.0-0.12"},{"rt":2546.029999968596,"stimulus":"audio/actual/s1-guide-10bis_jenseigne_beaucoup.mp3","button_pressed":"1","test_part":"test","phrase":"10bis","condition":"guide","subject":"s1","trial_type":"audio-button-response","trial_index":28,"time_elapsed":69823,"internal_node_id":"0.0-1.0-0.13"},{"rt":2231.3400000566617,"stimulus":"audio/actual/s6-imitation-10_jean_saigne_beaucoup-5_cut1norm.mp3","button_pressed":"0","test_part":"test","phrase":"10","condition":"imitation","subject":"s6","trial_type":"audio-button-response","trial_index":30,"time_elapsed":72755,"internal_node_id":"0.0-1.0-0.14"},{"rt":2326.645000022836,"stimulus":"audio/actual/s4-guide-10bis_jenseigne_beaucoup.mp3","button_pressed":"1","test_part":"test","phrase":"10bis","condition":"guide","subject":"s4","trial_type":"audio-button-response","trial_index":32,"time_elapsed":76274,"internal_node_id":"0.0-1.0-0.15"},{"rt":3521.334999939427,"stimulus":"audio/actual/s2-lecture-10bis_jenseigne_beaucoup-6_cut1norm.mp3","button_pressed":"1","test_part":"test","phrase":"10bis","condition":"lecture","subject":"s2","trial_type":"audio-button-response","trial_index":34,"time_elapsed":80180,"internal_node_id":"0.0-1.0-0.16"},{"rt":2239.5800000522286,"stimulus":"audio/actual/s6-imitation-10bis_jenseigne_beaucoup-4_cut1norm.mp3","button_pressed":"1","test_part":"test","phrase":"10bis","condition":"imitation","subject":"s6","trial_type":"audio-button-response","trial_index":36,"time_elapsed":83082,"internal_node_id":"0.0-1.0-0.17"},{"rt":2416.8599999975413,"stimulus":"audio/actual/s3-lecture-10_jean_saigne_beaucoup-2_cut1norm.mp3","button_pressed":"0","test_part":"test","phrase":"10","condition":"lecture","subject":"s3","trial_type":"audio-button-response","trial_index":38,"time_elapsed":85973,"internal_node_id":"0.0-1.0-0.18"},{"rt":2389.4550000550225,"stimulus":"audio/actual/s9-lecture-10_jean_saigne_beaucoup-3_cut1norm.mp3","button_pressed":"0","test_part":"test","phrase":"10","condition":"lecture","subject":"s9","trial_type":"audio-button-response","trial_index":40,"time_elapsed":88880,"internal_node_id":"0.0-1.0-0.19"},{"rt":2129.410000052303,"stimulus":"audio/actual/s1-imitation-10_jean_saigne_beaucoup-11_cut1norm.mp3","button_pressed":"0","test_part":"test","phrase":"10","condition":"imitation","subject":"s1","trial_type":"audio-button-response","trial_index":42,"time_elapsed":91410,"internal_node_id":"0.0-1.0-0.20"},{"rt":2496.1050000274554,"stimulus":"audio/actual/s6-lecture-10_jean_saigne_beaucoup-1_cut1norm.mp3","button_pressed":"0","test_part":"test","phrase":"10","condition":"lecture","subject":"s6","trial_type":"audio-button-response","trial_index":44,"time_elapsed":94828,"internal_node_id":"0.0-1.0-0.21"},{"rt":2204.355000052601,"stimulus":"audio/actual/s10-imitation-10_jean_saigne_beaucoup-11_cut1norm.mp3","button_pressed":"0","test_part":"test","phrase":"10","condition":"imitation","subject":"s10","trial_type":"audio-button-response","trial_index":46,"time_elapsed":97485,"internal_node_id":"0.0-1.0-0.22"},{"rt":2145.935000036843,"stimulus":"audio/actual/s8-guide-10_jean_saigne_beaucoup.mp3","button_pressed":"0","test_part":"test","phrase":"10","condition":"guide","subject":"s8","trial_type":"audio-button-response","trial_index":48,"time_elapsed":100128,"internal_node_id":"0.0-1.0-0.23"},{"rt":1907.6549999881536,"stimulus":"audio/actual/s7-blind-10_jean_saigne_beaucoup.mp3","button_pressed":"0","test_part":"test","phrase":"10","condition":"blind","subject":"s7","trial_type":"audio-button-response","trial_index":50,"time_elapsed":102520,"internal_node_id":"0.0-1.0-0.24"},{"rt":2014.420000021346,"stimulus":"audio/actual/s5-lecture-10_jean_saigne_beaucoup-5_cut1norm.mp3","button_pressed":"0","test_part":"test","phrase":"10","condition":"lecture","subject":"s5","trial_type":"audio-button-response","trial_index":52,"time_elapsed":105402,"internal_node_id":"0.0-1.0-0.25"},{"rt":2330.74000000488,"stimulus":"audio/actual/s10-blind-10bis_jenseigne_beaucoup.mp3","button_pressed":"1","test_part":"test","phrase":"10bis","condition":"blind","subject":"s10","trial_type":"audio-button-response","trial_index":54,"time_elapsed":108072,"internal_node_id":"0.0-1.0-0.26"},{"rt":1776.4700000407174,"stimulus":"audio/actual/s9-blind-10bis_jenseigne_beaucoup.mp3","button_pressed":"1","test_part":"test","phrase":"10bis","condition":"blind","subject":"s9","trial_type":"audio-button-response","trial_index":56,"time_elapsed":110301,"internal_node_id":"0.0-1.0-0.27"},{"rt":1698.0000000912696,"stimulus":"audio/actual/s8-blind-10_jean_saigne_beaucoup.mp3","button_pressed":"1","test_part":"test","phrase":"10","condition":"blind","subject":"s8","trial_type":"audio-button-response","trial_index":58,"time_elapsed":112461,"internal_node_id":"0.0-1.0-0.28"},{"rt":1711.5950000006706,"stimulus":"audio/actual/s9-imitation-10bis_jenseigne_beaucoup-5_cut1norm.mp3","button_pressed":"1","test_part":"test","phrase":"10bis","condition":"imitation","subject":"s9","trial_type":"audio-button-response","trial_index":60,"time_elapsed":114392,"internal_node_id":"0.0-1.0-0.29"},{"rt":2951.8750000279397,"stimulus":"audio/actual/s3-guide-10_jean_saigne_beaucoup.mp3","button_pressed":"0","test_part":"test","phrase":"10","condition":"guide","subject":"s3","trial_type":"audio-button-response","trial_index":62,"time_elapsed":117596,"internal_node_id":"0.0-1.0-0.30"},{"rt":1999.3299999041483,"stimulus":"audio/actual/s6-guide-10bis_jenseigne_beaucoup.mp3","button_pressed":"1","test_part":"test","phrase":"10bis","condition":"guide","subject":"s6","trial_type":"audio-button-response","trial_index":64,"time_elapsed":119917,"internal_node_id":"0.0-1.0-0.31"},{"rt":1760.0499999243766,"stimulus":"audio/actual/s3-imitation-10bis_jenseigne_beaucoup-3_cut1norm.mp3","button_pressed":"1","test_part":"test","phrase":"10bis","condition":"imitation","subject":"s3","trial_type":"audio-button-response","trial_index":66,"time_elapsed":122010,"internal_node_id":"0.0-1.0-0.32"},{"rt":1490.2999999467283,"stimulus":"audio/actual/s5-imitation-10bis_jenseigne_beaucoup-11_cut1norm.mp3","button_pressed":"1","test_part":"test","phrase":"10bis","condition":"imitation","subject":"s5","trial_type":"audio-button-response","trial_index":68,"time_elapsed":123856,"internal_node_id":"0.0-1.0-0.33"},{"rt":2004.3049999512732,"stimulus":"audio/actual/s4-lecture-10bis_jenseigne_beaucoup-0_cut1norm.mp3","button_pressed":"1","test_part":"test","phrase":"10bis","condition":"lecture","subject":"s4","trial_type":"audio-button-response","trial_index":70,"time_elapsed":126276,"internal_node_id":"0.0-1.0-0.34"},{"rt":1572.9750000173226,"stimulus":"audio/actual/s7-blind-10bis_jenseigne_beaucoup.mp3","button_pressed":"1","test_part":"test","phrase":"10bis","condition":"blind","subject":"s7","trial_type":"audio-button-response","trial_index":72,"time_elapsed":128148,"internal_node_id":"0.0-1.0-0.35"},{"rt":3640.6649999553338,"stimulus":"audio/actual/s10-guide-10bis_jenseigne_beaucoup.mp3","button_pressed":"0","test_part":"test","phrase":"10bis","condition":"guide","subject":"s10","trial_type":"audio-button-response","trial_index":74,"time_elapsed":132042,"internal_node_id":"0.0-1.0-0.36"},{"rt":2557.814999949187,"stimulus":"audio/actual/s7-guide-10_jean_saigne_beaucoup.mp3","button_pressed":"0","test_part":"test","phrase":"10","condition":"guide","subject":"s7","trial_type":"audio-button-response","trial_index":76,"time_elapsed":135410,"internal_node_id":"0.0-1.0-0.37"},{"rt":2140.5750000849366,"stimulus":"audio/actual/s6-guide-10_jean_saigne_beaucoup.mp3","button_pressed":"0","test_part":"test","phrase":"10","condition":"guide","subject":"s6","trial_type":"audio-button-response","trial_index":78,"time_elapsed":137810,"internal_node_id":"0.0-1.0-0.38"},{"rt":1873.2399999862537,"stimulus":"audio/actual/s2-imitation-10bis_jenseigne_beaucoup-5_cut1norm.mp3","button_pressed":"1","test_part":"test","phrase":"10bis","condition":"imitation","subject":"s2","trial_type":"audio-button-response","trial_index":80,"time_elapsed":140207,"internal_node_id":"0.0-1.0-0.39"},{"rt":2276.3050000648946,"stimulus":"audio/actual/s3-blind-10bis_jenseigne_beaucoup.mp3","button_pressed":"1","test_part":"test","phrase":"10bis","condition":"blind","subject":"s3","trial_type":"audio-button-response","trial_index":82,"time_elapsed":142978,"internal_node_id":"0.0-1.0-0.40"},{"rt":1847.7999999886379,"stimulus":"audio/actual/s7-guide-10bis_jenseigne_beaucoup.mp3","button_pressed":"1","test_part":"test","phrase":"10bis","condition":"guide","subject":"s7","trial_type":"audio-button-response","trial_index":84,"time_elapsed":145073,"internal_node_id":"0.0-1.0-0.41"},{"rt":2717.1849999576807,"stimulus":"audio/actual/s10-guide-10_jean_saigne_beaucoup.mp3","button_pressed":"0","test_part":"test","phrase":"10","condition":"guide","subject":"s10","trial_type":"audio-button-response","trial_index":86,"time_elapsed":147958,"internal_node_id":"0.0-1.0-0.42"},{"rt":1888.4349999716505,"stimulus":"audio/actual/s7-imitation-10_jean_saigne_beaucoup-3_cut1norm.mp3","button_pressed":"0","test_part":"test","phrase":"10","condition":"imitation","subject":"s7","trial_type":"audio-button-response","trial_index":88,"time_elapsed":150151,"internal_node_id":"0.0-1.0-0.43"},{"rt":1833.9700000360608,"stimulus":"audio/actual/s5-guide-10bis_jenseigne_beaucoup.mp3","button_pressed":"1","test_part":"test","phrase":"10bis","condition":"guide","subject":"s5","trial_type":"audio-button-response","trial_index":90,"time_elapsed":152523,"internal_node_id":"0.0-1.0-0.44"},{"rt":1428.3650000579655,"stimulus":"audio/actual/s8-imitation-10bis_jenseigne_beaucoup-11_cut1norm.mp3","button_pressed":"1","test_part":"test","phrase":"10bis","condition":"imitation","subject":"s8","trial_type":"audio-button-response","trial_index":92,"time_elapsed":154378,"internal_node_id":"0.0-1.0-0.45"},{"rt":1912.0899999979883,"stimulus":"audio/actual/s5-guide-10_jean_saigne_beaucoup.mp3","button_pressed":"0","test_part":"test","phrase":"10","condition":"guide","subject":"s5","trial_type":"audio-button-response","trial_index":94,"time_elapsed":156749,"internal_node_id":"0.0-1.0-0.46"},{"rt":2957.2100000223145,"stimulus":"audio/actual/s9-guide-10_jean_saigne_beaucoup.mp3","button_pressed":"1","test_part":"test","phrase":"10","condition":"guide","subject":"s9","trial_type":"audio-button-response","trial_index":96,"time_elapsed":160053,"internal_node_id":"0.0-1.0-0.47"},{"rt":2172.414999920875,"stimulus":"audio/actual/s7-lecture-10bis_jenseigne_beaucoup-9_cut1norm.mp3","button_pressed":"1","test_part":"test","phrase":"10bis","condition":"lecture","subject":"s7","trial_type":"audio-button-response","trial_index":98,"time_elapsed":162560,"internal_node_id":"0.0-1.0-0.48"},{"rt":2737.6450001029298,"stimulus":"audio/actual/s9-lecture-10bis_jenseigne_beaucoup-2_cut1norm.mp3","button_pressed":"0","test_part":"test","phrase":"10bis","condition":"lecture","subject":"s9","trial_type":"audio-button-response","trial_index":100,"time_elapsed":165455,"internal_node_id":"0.0-1.0-0.49"},{"rt":2569.56000009086,"stimulus":"audio/actual/s6-blind-10_jean_saigne_beaucoup.mp3","button_pressed":"0","test_part":"test","phrase":"10","condition":"blind","subject":"s6","trial_type":"audio-button-response","trial_index":102,"time_elapsed":168300,"internal_node_id":"0.0-1.0-0.50"},{"rt":2059.0399999637157,"stimulus":"audio/actual/s8-lecture-10_jean_saigne_beaucoup-10_cut1norm.mp3","button_pressed":"0","test_part":"test","phrase":"10","condition":"lecture","subject":"s8","trial_type":"audio-button-response","trial_index":104,"time_elapsed":171194,"internal_node_id":"0.0-1.0-0.51"},{"rt":1843.1649999693036,"stimulus":"audio/actual/s10-lecture-10bis_jenseigne_beaucoup-11_cut1norm.mp3","button_pressed":"1","test_part":"test","phrase":"10bis","condition":"lecture","subject":"s10","trial_type":"audio-button-response","trial_index":106,"time_elapsed":173302,"internal_node_id":"0.0-1.0-0.52"},{"rt":2666.2700000451878,"stimulus":"audio/actual/s3-imitation-10_jean_saigne_beaucoup-2_cut1norm.mp3","button_pressed":"0","test_part":"test","phrase":"10","condition":"imitation","subject":"s3","trial_type":"audio-button-response","trial_index":108,"time_elapsed":176391,"internal_node_id":"0.0-1.0-0.53"},{"rt":1926.7850000178441,"stimulus":"audio/actual/s4-blind-10bis_jenseigne_beaucoup.mp3","button_pressed":"1","test_part":"test","phrase":"10bis","condition":"blind","subject":"s4","trial_type":"audio-button-response","trial_index":110,"time_elapsed":178573,"internal_node_id":"0.0-1.0-0.54"},{"rt":2021.995000075549,"stimulus":"audio/actual/s9-blind-10_jean_saigne_beaucoup.mp3","button_pressed":"0","test_part":"test","phrase":"10","condition":"blind","subject":"s9","trial_type":"audio-button-response","trial_index":112,"time_elapsed":180834,"internal_node_id":"0.0-1.0-0.55"},{"rt":2060.4300000704825,"stimulus":"audio/actual/s7-imitation-10bis_jenseigne_beaucoup-2_cut1norm.mp3","button_pressed":"1","test_part":"test","phrase":"10bis","condition":"imitation","subject":"s7","trial_type":"audio-button-response","trial_index":114,"time_elapsed":183280,"internal_node_id":"0.0-1.0-0.56"},{"rt":2117.119999951683,"stimulus":"audio/actual/s9-guide-10bis_jenseigne_beaucoup.mp3","button_pressed":"1","test_part":"test","phrase":"10bis","condition":"guide","subject":"s9","trial_type":"audio-button-response","trial_index":116,"time_elapsed":185649,"internal_node_id":"0.0-1.0-0.57"},{"rt":1929.4900000095367,"stimulus":"audio/actual/s1-lecture-10bis_jenseigne_beaucoup-3_cut1norm.mp3","button_pressed":"1","test_part":"test","phrase":"10bis","condition":"lecture","subject":"s1","trial_type":"audio-button-response","trial_index":118,"time_elapsed":187680,"internal_node_id":"0.0-1.0-0.58"},{"rt":2387.125000008382,"stimulus":"audio/actual/s10-lecture-10_jean_saigne_beaucoup-10_cut1norm.mp3","button_pressed":"1","test_part":"test","phrase":"10","condition":"lecture","subject":"s10","trial_type":"audio-button-response","trial_index":120,"time_elapsed":190512,"internal_node_id":"0.0-1.0-0.59"},{"rt":2148.185000056401,"stimulus":"audio/actual/s3-lecture-10bis_jenseigne_beaucoup-3_cut1norm.mp3","button_pressed":"1","test_part":"test","phrase":"10bis","condition":"lecture","subject":"s3","trial_type":"audio-button-response","trial_index":122,"time_elapsed":192819,"internal_node_id":"0.0-1.0-0.60"},{"rt":3429.394999984652,"stimulus":"audio/actual/s2-guide-10bis_jenseigne_beaucoup.mp3","button_pressed":"2","test_part":"test","phrase":"10bis","condition":"guide","subject":"s2","trial_type":"audio-button-response","trial_index":124,"time_elapsed":196652,"internal_node_id":"0.0-1.0-0.61"},{"rt":4567.614999949001,"stimulus":"audio/actual/s2-guide-10bis_jenseigne_beaucoup.mp3","button_pressed":"1","test_part":"test","phrase":"10bis","condition":"guide","subject":"s2","trial_type":"audio-button-response","trial_index":125,"time_elapsed":201221,"internal_node_id":"0.0-1.0-1.61-0.61"},{"rt":2130.790000082925,"stimulus":"audio/actual/s10-imitation-10bis_jenseigne_beaucoup-10_cut1norm.mp3","button_pressed":"1","test_part":"test","phrase":"10bis","condition":"imitation","subject":"s10","trial_type":"audio-button-response","trial_index":127,"time_elapsed":219808,"internal_node_id":"0.0-1.0-0.62"},{"rt":2620.7899999571964,"stimulus":"audio/actual/s3-blind-10_jean_saigne_beaucoup.mp3","button_pressed":"0","test_part":"test","phrase":"10","condition":"blind","subject":"s3","trial_type":"audio-button-response","trial_index":129,"time_elapsed":223301,"internal_node_id":"0.0-1.0-0.63"},{"rt":1650.400000042282,"stimulus":"audio/actual/s8-guide-10bis_jenseigne_beaucoup.mp3","button_pressed":"1","test_part":"test","phrase":"10bis","condition":"guide","subject":"s8","trial_type":"audio-button-response","trial_index":131,"time_elapsed":225559,"internal_node_id":"0.0-1.0-0.64"},{"rt":2049.9350000172853,"stimulus":"audio/actual/s2-imitation-10_jean_saigne_beaucoup-4_cut1norm.mp3","button_pressed":"0","test_part":"test","phrase":"10","condition":"imitation","subject":"s2","trial_type":"audio-button-response","trial_index":133,"time_elapsed":227964,"internal_node_id":"0.0-1.0-0.65"},{"rt":3983.5250000469387,"stimulus":"audio/actual/s4-guide-10_jean_saigne_beaucoup.mp3","button_pressed":"0","test_part":"test","phrase":"10","condition":"guide","subject":"s4","trial_type":"audio-button-response","trial_index":135,"time_elapsed":232389,"internal_node_id":"0.0-1.0-0.66"},{"rt":1677.0150000229478,"stimulus":"audio/actual/s8-blind-10bis_jenseigne_beaucoup.mp3","button_pressed":"1","test_part":"test","phrase":"10bis","condition":"blind","subject":"s8","trial_type":"audio-button-response","trial_index":137,"time_elapsed":234359,"internal_node_id":"0.0-1.0-0.67"},{"rt":3180.434999987483,"stimulus":"audio/actual/s1-blind-10_jean_saigne_beaucoup.mp3","button_pressed":"1","test_part":"test","phrase":"10","condition":"blind","subject":"s1","trial_type":"audio-button-response","trial_index":139,"time_elapsed":237705,"internal_node_id":"0.0-1.0-0.68"},{"rt":2103.0500000342727,"stimulus":"audio/actual/s2-lecture-10_jean_saigne_beaucoup-7_cut1norm.mp3","button_pressed":"0","test_part":"test","phrase":"10","condition":"lecture","subject":"s2","trial_type":"audio-button-response","trial_index":141,"time_elapsed":240225,"internal_node_id":"0.0-1.0-0.69"},{"rt":4619.449999998324,"stimulus":"audio/actual/s1-guide-10_jean_saigne_beaucoup.mp3","button_pressed":"0","test_part":"test","phrase":"10","condition":"guide","subject":"s1","trial_type":"audio-button-response","trial_index":143,"time_elapsed":245290,"internal_node_id":"0.0-1.0-0.70"},{"rt":2106.175000080839,"stimulus":"audio/actual/s9-imitation-10_jean_saigne_beaucoup-4_cut1norm.mp3","button_pressed":"0","test_part":"test","phrase":"10","condition":"imitation","subject":"s9","trial_type":"audio-button-response","trial_index":145,"time_elapsed":248279,"internal_node_id":"0.0-1.0-0.71"},{"rt":2094.1400000592694,"stimulus":"audio/actual/s2-blind-10_jean_saigne_beaucoup.mp3","button_pressed":"1","test_part":"test","phrase":"10","condition":"blind","subject":"s2","trial_type":"audio-button-response","trial_index":147,"time_elapsed":251013,"internal_node_id":"0.0-1.0-0.72"},{"rt":5812.064999947324,"stimulus":"audio/actual/s4-blind-10_jean_saigne_beaucoup.mp3","button_pressed":"1","test_part":"test","phrase":"10","condition":"blind","subject":"s4","trial_type":"audio-button-response","trial_index":149,"time_elapsed":257571,"internal_node_id":"0.0-1.0-0.73"},{"rt":1524.944999953732,"stimulus":"audio/actual/s5-blind-10bis_jenseigne_beaucoup.mp3","button_pressed":"1","test_part":"test","phrase":"10bis","condition":"blind","subject":"s5","trial_type":"audio-button-response","trial_index":151,"time_elapsed":259729,"internal_node_id":"0.0-1.0-0.74"},{"rt":1655.4350000806153,"stimulus":"audio/actual/s8-lecture-10bis_jenseigne_beaucoup-11_cut1norm.mp3","button_pressed":"1","test_part":"test","phrase":"10bis","condition":"lecture","subject":"s8","trial_type":"audio-button-response","trial_index":153,"time_elapsed":261675,"internal_node_id":"0.0-1.0-0.75"},{"rt":2152.284999960102,"stimulus":"audio/actual/s4-lecture-10_jean_saigne_beaucoup-1_cut1norm.mp3","button_pressed":"0","test_part":"test","phrase":"10","condition":"lecture","subject":"s4","trial_type":"audio-button-response","trial_index":155,"time_elapsed":264293,"internal_node_id":"0.0-1.0-0.76"},{"rt":2984.2850000131875,"stimulus":"audio/actual/s1-blind-10bis_jenseigne_beaucoup.mp3","button_pressed":"1","test_part":"test","phrase":"10bis","condition":"blind","subject":"s1","trial_type":"audio-button-response","trial_index":157,"time_elapsed":267832,"internal_node_id":"0.0-1.0-0.77"},{"rt":2126.9699999829754,"stimulus":"audio/actual/s4-imitation-10_jean_saigne_beaucoup-1_cut1norm.mp3","button_pressed":"0","test_part":"test","phrase":"10","condition":"imitation","subject":"s4","trial_type":"audio-button-response","trial_index":159,"time_elapsed":270621,"internal_node_id":"0.0-1.0-0.78"},{"rt":1707.2000000625849,"stimulus":"audio/actual/s2-blind-10bis_jenseigne_beaucoup.mp3","button_pressed":"1","test_part":"test","phrase":"10bis","condition":"blind","subject":"s2","trial_type":"audio-button-response","trial_index":161,"time_elapsed":272596,"internal_node_id":"0.0-1.0-0.79"}]