[{"rt":6763.325000007171,"stimulus":"audio/actual/s5-lecture-10bis_jenseigne_beaucoup-4_cut1norm.mp3","button_pressed":"2","test_part":"test","phrase":"10bis","condition":"lecture","subject":"s5","trial_type":"audio-button-response","trial_index":1,"time_elapsed":36275,"internal_node_id":"0.0-1.0-0.0"},{"rt":1763.7899999972433,"stimulus":"audio/actual/s5-lecture-10bis_jenseigne_beaucoup-4_cut1norm.mp3","button_pressed":"1","test_part":"test","phrase":"10bis","condition":"lecture","subject":"s5","trial_type":"audio-button-response","trial_index":2,"time_elapsed":38040,"internal_node_id":"0.0-1.0-1.0-0.0"},{"rt":7571.024999997462,"stimulus":"audio/actual/s6-blind-10bis_jenseigne_beaucoup.mp3","button_pressed":"2","test_part":"test","phrase":"10bis","condition":"blind","subject":"s6","trial_type":"audio-button-response","trial_index":4,"time_elapsed":47008,"internal_node_id":"0.0-1.0-0.1"},{"rt":2027.764999991632,"stimulus":"audio/actual/s6-blind-10bis_jenseigne_beaucoup.mp3","button_pressed":"0","test_part":"test","phrase":"10bis","condition":"blind","subject":"s6","trial_type":"audio-button-response","trial_index":5,"time_elapsed":49038,"internal_node_id":"0.0-1.0-1.1-0.1"},{"rt":4147.355000008247,"stimulus":"audio/actual/s2-blind-10bis_jenseigne_beaucoup.mp3","button_pressed":"1","test_part":"test","phrase":"10bis","condition":"blind","subject":"s2","trial_type":"audio-button-response","trial_index":7,"time_elapsed":54520,"internal_node_id":"0.0-1.0-0.2"},{"rt":2173.3099999983096,"stimulus":"audio/actual/s1-imitation-10_jean_saigne_beaucoup-11_cut1norm.mp3","button_pressed":"0","test_part":"test","phrase":"10","condition":"imitation","subject":"s1","trial_type":"audio-button-response","trial_index":9,"time_elapsed":57882,"internal_node_id":"0.0-1.0-0.3"},{"rt":2513.0150000040885,"stimulus":"audio/actual/s5-blind-10_jean_saigne_beaucoup.mp3","button_pressed":"0","test_part":"test","phrase":"10","condition":"blind","subject":"s5","trial_type":"audio-button-response","trial_index":11,"time_elapsed":62029,"internal_node_id":"0.0-1.0-0.4"},{"rt":4235.050000002957,"stimulus":"audio/actual/s10-lecture-10_jean_saigne_beaucoup-10_cut1norm.mp3","button_pressed":"0","test_part":"test","phrase":"10","condition":"lecture","subject":"s10","trial_type":"audio-button-response","trial_index":13,"time_elapsed":66984,"internal_node_id":"0.0-1.0-0.5"},{"rt":1515.9049999929266,"stimulus":"audio/actual/s8-blind-10bis_jenseigne_beaucoup.mp3","button_pressed":"1","test_part":"test","phrase":"10bis","condition":"blind","subject":"s8","trial_type":"audio-button-response","trial_index":15,"time_elapsed":69256,"internal_node_id":"0.0-1.0-0.6"},{"rt":3953.0850000010105,"stimulus":"audio/actual/s9-guide-10bis_jenseigne_beaucoup.mp3","button_pressed":"0","test_part":"test","phrase":"10bis","condition":"guide","subject":"s9","trial_type":"audio-button-response","trial_index":17,"time_elapsed":73827,"internal_node_id":"0.0-1.0-0.7"},{"rt":2857.610000006389,"stimulus":"audio/actual/s3-guide-10_jean_saigne_beaucoup.mp3","button_pressed":"1","test_part":"test","phrase":"10","condition":"guide","subject":"s3","trial_type":"audio-button-response","trial_index":19,"time_elapsed":77102,"internal_node_id":"0.0-1.0-0.8"},{"rt":4221.87500000291,"stimulus":"audio/actual/s9-blind-10bis_jenseigne_beaucoup.mp3","button_pressed":"1","test_part":"test","phrase":"10bis","condition":"blind","subject":"s9","trial_type":"audio-button-response","trial_index":21,"time_elapsed":81843,"internal_node_id":"0.0-1.0-0.9"},{"rt":3509.2750000039814,"stimulus":"audio/actual/s10-blind-10_jean_saigne_beaucoup.mp3","button_pressed":"0","test_part":"test","phrase":"10","condition":"blind","subject":"s10","trial_type":"audio-button-response","trial_index":23,"time_elapsed":85760,"internal_node_id":"0.0-1.0-0.10"},{"rt":3866.8199999956414,"stimulus":"audio/actual/s6-imitation-10_jean_saigne_beaucoup-5_cut1norm.mp3","button_pressed":"1","test_part":"test","phrase":"10","condition":"imitation","subject":"s6","trial_type":"audio-button-response","trial_index":25,"time_elapsed":90126,"internal_node_id":"0.0-1.0-0.11"},{"rt":6333.754999999655,"stimulus":"audio/actual/s1-blind-10_jean_saigne_beaucoup.mp3","button_pressed":"0","test_part":"test","phrase":"10","condition":"blind","subject":"s1","trial_type":"audio-button-response","trial_index":27,"time_elapsed":96993,"internal_node_id":"0.0-1.0-0.12"},{"rt":2309.7799999959534,"stimulus":"audio/actual/s5-blind-10bis_jenseigne_beaucoup.mp3","button_pressed":"1","test_part":"test","phrase":"10bis","condition":"blind","subject":"s5","trial_type":"audio-button-response","trial_index":29,"time_elapsed":100341,"internal_node_id":"0.0-1.0-0.13"},{"rt":4439.945000005537,"stimulus":"audio/actual/s4-imitation-10bis_jenseigne_beaucoup-0_cut1norm.mp3","button_pressed":"1","test_part":"test","phrase":"10bis","condition":"imitation","subject":"s4","trial_type":"audio-button-response","trial_index":31,"time_elapsed":175124,"internal_node_id":"0.0-1.0-0.14"},{"rt":2277.314999999362,"stimulus":"audio/actual/s7-guide-10_jean_saigne_beaucoup.mp3","button_pressed":"0","test_part":"test","phrase":"10","condition":"guide","subject":"s7","trial_type":"audio-button-response","trial_index":33,"time_elapsed":178344,"internal_node_id":"0.0-1.0-0.15"},{"rt":4293.1249999965075,"stimulus":"audio/actual/s3-imitation-10_jean_saigne_beaucoup-2_cut1norm.mp3","button_pressed":"0","test_part":"test","phrase":"10","condition":"imitation","subject":"s3","trial_type":"audio-button-response","trial_index":35,"time_elapsed":183560,"internal_node_id":"0.0-1.0-0.16"},{"rt":1251.3550000003306,"stimulus":"audio/actual/s6-imitation-10bis_jenseigne_beaucoup-4_cut1norm.mp3","button_pressed":"1","test_part":"test","phrase":"10bis","condition":"imitation","subject":"s6","trial_type":"audio-button-response","trial_index":37,"time_elapsed":185510,"internal_node_id":"0.0-1.0-0.17"},{"rt":1196.3050000049407,"stimulus":"audio/actual/s7-guide-10bis_jenseigne_beaucoup.mp3","button_pressed":"1","test_part":"test","phrase":"10bis","condition":"guide","subject":"s7","trial_type":"audio-button-response","trial_index":39,"time_elapsed":187214,"internal_node_id":"0.0-1.0-0.18"},{"rt":1614.0699999959907,"stimulus":"audio/actual/s5-imitation-10_jean_saigne_beaucoup-10_cut1norm.mp3","button_pressed":"0","test_part":"test","phrase":"10","condition":"imitation","subject":"s5","trial_type":"audio-button-response","trial_index":41,"time_elapsed":189303,"internal_node_id":"0.0-1.0-0.19"},{"rt":3649.7999999992317,"stimulus":"audio/actual/s3-blind-10_jean_saigne_beaucoup.mp3","button_pressed":"0","test_part":"test","phrase":"10","condition":"blind","subject":"s3","trial_type":"audio-button-response","trial_index":43,"time_elapsed":193364,"internal_node_id":"0.0-1.0-0.20"},{"rt":2343.670000002021,"stimulus":"audio/actual/s5-lecture-10_jean_saigne_beaucoup-5_cut1norm.mp3","button_pressed":"1","test_part":"test","phrase":"10","condition":"lecture","subject":"s5","trial_type":"audio-button-response","trial_index":45,"time_elapsed":196297,"internal_node_id":"0.0-1.0-0.21"},{"rt":2236.8100000021514,"stimulus":"audio/actual/s1-blind-10bis_jenseigne_beaucoup.mp3","button_pressed":"1","test_part":"test","phrase":"10bis","condition":"blind","subject":"s1","trial_type":"audio-button-response","trial_index":47,"time_elapsed":199167,"internal_node_id":"0.0-1.0-0.22"},{"rt":2030.9200000046985,"stimulus":"audio/actual/s4-blind-10bis_jenseigne_beaucoup.mp3","button_pressed":"1","test_part":"test","phrase":"10bis","condition":"blind","subject":"s4","trial_type":"audio-button-response","trial_index":49,"time_elapsed":201617,"internal_node_id":"0.0-1.0-0.23"},{"rt":1880.4800000070827,"stimulus":"audio/actual/s3-lecture-10_jean_saigne_beaucoup-2_cut1norm.mp3","button_pressed":"0","test_part":"test","phrase":"10","condition":"lecture","subject":"s3","trial_type":"audio-button-response","trial_index":51,"time_elapsed":204105,"internal_node_id":"0.0-1.0-0.24"},{"rt":4490.449999997509,"stimulus":"audio/actual/s4-guide-10bis_jenseigne_beaucoup.mp3","button_pressed":"2","test_part":"test","phrase":"10bis","condition":"guide","subject":"s4","trial_type":"audio-button-response","trial_index":53,"time_elapsed":209308,"internal_node_id":"0.0-1.0-0.25"},{"rt":5259.959999995772,"stimulus":"audio/actual/s4-guide-10bis_jenseigne_beaucoup.mp3","button_pressed":"1","test_part":"test","phrase":"10bis","condition":"guide","subject":"s4","trial_type":"audio-button-response","trial_index":54,"time_elapsed":214570,"internal_node_id":"0.0-1.0-1.25-0.25"},{"rt":2240.9049999987474,"stimulus":"audio/actual/s8-guide-10bis_jenseigne_beaucoup.mp3","button_pressed":"1","test_part":"test","phrase":"10bis","condition":"guide","subject":"s8","trial_type":"audio-button-response","trial_index":56,"time_elapsed":218235,"internal_node_id":"0.0-1.0-0.26"},{"rt":2368.8550000078976,"stimulus":"audio/actual/s10-blind-10bis_jenseigne_beaucoup.mp3","button_pressed":"1","test_part":"test","phrase":"10bis","condition":"blind","subject":"s10","trial_type":"audio-button-response","trial_index":58,"time_elapsed":221180,"internal_node_id":"0.0-1.0-0.27"},{"rt":1861.140000008163,"stimulus":"audio/actual/s6-lecture-10_jean_saigne_beaucoup-1_cut1norm.mp3","button_pressed":"0","test_part":"test","phrase":"10","condition":"lecture","subject":"s6","trial_type":"audio-button-response","trial_index":60,"time_elapsed":223920,"internal_node_id":"0.0-1.0-0.28"},{"rt":1610.690000001341,"stimulus":"audio/actual/s2-imitation-10_jean_saigne_beaucoup-4_cut1norm.mp3","button_pressed":"0","test_part":"test","phrase":"10","condition":"imitation","subject":"s2","trial_type":"audio-button-response","trial_index":62,"time_elapsed":226108,"internal_node_id":"0.0-1.0-0.29"},{"rt":1807.6950000104262,"stimulus":"audio/actual/s10-imitation-10_jean_saigne_beaucoup-11_cut1norm.mp3","button_pressed":"0","test_part":"test","phrase":"10","condition":"imitation","subject":"s10","trial_type":"audio-button-response","trial_index":64,"time_elapsed":228658,"internal_node_id":"0.0-1.0-0.30"},{"rt":1453.1450000067707,"stimulus":"audio/actual/s8-lecture-10bis_jenseigne_beaucoup-11_cut1norm.mp3","button_pressed":"1","test_part":"test","phrase":"10bis","condition":"lecture","subject":"s8","trial_type":"audio-button-response","trial_index":66,"time_elapsed":230831,"internal_node_id":"0.0-1.0-0.31"},{"rt":4093.5049999970943,"stimulus":"audio/actual/s10-guide-10_jean_saigne_beaucoup.mp3","button_pressed":"1","test_part":"test","phrase":"10","condition":"guide","subject":"s10","trial_type":"audio-button-response","trial_index":68,"time_elapsed":235336,"internal_node_id":"0.0-1.0-0.32"},{"rt":2119.829999996,"stimulus":"audio/actual/s2-lecture-10_jean_saigne_beaucoup-7_cut1norm.mp3","button_pressed":"0","test_part":"test","phrase":"10","condition":"lecture","subject":"s2","trial_type":"audio-button-response","trial_index":70,"time_elapsed":238090,"internal_node_id":"0.0-1.0-0.33"},{"rt":4631.809999991674,"stimulus":"audio/actual/s8-guide-10_jean_saigne_beaucoup.mp3","button_pressed":"0","test_part":"test","phrase":"10","condition":"guide","subject":"s8","trial_type":"audio-button-response","trial_index":72,"time_elapsed":243602,"internal_node_id":"0.0-1.0-0.34"},{"rt":3002.184999990277,"stimulus":"audio/actual/s4-lecture-10_jean_saigne_beaucoup-1_cut1norm.mp3","button_pressed":"0","test_part":"test","phrase":"10","condition":"lecture","subject":"s4","trial_type":"audio-button-response","trial_index":74,"time_elapsed":247230,"internal_node_id":"0.0-1.0-0.35"},{"rt":2056.609999999637,"stimulus":"audio/actual/s8-blind-10_jean_saigne_beaucoup.mp3","button_pressed":"1","test_part":"test","phrase":"10","condition":"blind","subject":"s8","trial_type":"audio-button-response","trial_index":76,"time_elapsed":270029,"internal_node_id":"0.0-1.0-0.36"},{"rt":1493.835000001127,"stimulus":"audio/actual/s5-guide-10_jean_saigne_beaucoup.mp3","button_pressed":"1","test_part":"test","phrase":"10","condition":"guide","subject":"s5","trial_type":"audio-button-response","trial_index":78,"time_elapsed":272089,"internal_node_id":"0.0-1.0-0.37"},{"rt":2165.760000003502,"stimulus":"audio/actual/s1-lecture-10bis_jenseigne_beaucoup-3_cut1norm.mp3","button_pressed":"1","test_part":"test","phrase":"10bis","condition":"lecture","subject":"s1","trial_type":"audio-button-response","trial_index":80,"time_elapsed":274769,"internal_node_id":"0.0-1.0-0.38"},{"rt":2266.2750000017695,"stimulus":"audio/actual/s10-lecture-10bis_jenseigne_beaucoup-11_cut1norm.mp3","button_pressed":"1","test_part":"test","phrase":"10bis","condition":"lecture","subject":"s10","trial_type":"audio-button-response","trial_index":82,"time_elapsed":277717,"internal_node_id":"0.0-1.0-0.39"},{"rt":1367.5999999977648,"stimulus":"audio/actual/s8-imitation-10_jean_saigne_beaucoup-10_cut1norm.mp3","button_pressed":"0","test_part":"test","phrase":"10","condition":"imitation","subject":"s8","trial_type":"audio-button-response","trial_index":84,"time_elapsed":279490,"internal_node_id":"0.0-1.0-0.40"},{"rt":2649.2399999988265,"stimulus":"audio/actual/s4-guide-10_jean_saigne_beaucoup.mp3","button_pressed":"1","test_part":"test","phrase":"10","condition":"guide","subject":"s4","trial_type":"audio-button-response","trial_index":86,"time_elapsed":282516,"internal_node_id":"0.0-1.0-0.41"},{"rt":1589.7249999979977,"stimulus":"audio/actual/s3-blind-10bis_jenseigne_beaucoup.mp3","button_pressed":"1","test_part":"test","phrase":"10bis","condition":"blind","subject":"s3","trial_type":"audio-button-response","trial_index":88,"time_elapsed":284597,"internal_node_id":"0.0-1.0-0.42"},{"rt":2074.350000009872,"stimulus":"audio/actual/s1-guide-10bis_jenseigne_beaucoup.mp3","button_pressed":"1","test_part":"test","phrase":"10bis","condition":"guide","subject":"s1","trial_type":"audio-button-response","trial_index":90,"time_elapsed":287053,"internal_node_id":"0.0-1.0-0.43"},{"rt":1405.8300000033341,"stimulus":"audio/actual/s9-imitation-10bis_jenseigne_beaucoup-5_cut1norm.mp3","button_pressed":"1","test_part":"test","phrase":"10bis","condition":"imitation","subject":"s9","trial_type":"audio-button-response","trial_index":92,"time_elapsed":289849,"internal_node_id":"0.0-1.0-0.44"},{"rt":3323.0550000007497,"stimulus":"audio/actual/s6-blind-10_jean_saigne_beaucoup.mp3","button_pressed":"0","test_part":"test","phrase":"10","condition":"blind","subject":"s6","trial_type":"audio-button-response","trial_index":94,"time_elapsed":294101,"internal_node_id":"0.0-1.0-0.45"},{"rt":1421.1250000080327,"stimulus":"audio/actual/s5-imitation-10bis_jenseigne_beaucoup-11_cut1norm.mp3","button_pressed":"0","test_part":"test","phrase":"10bis","condition":"imitation","subject":"s5","trial_type":"audio-button-response","trial_index":96,"time_elapsed":295904,"internal_node_id":"0.0-1.0-0.46"},{"rt":1348.3500000002095,"stimulus":"audio/actual/s1-imitation-10bis_jenseigne_beaucoup-10_cut1norm.mp3","button_pressed":"0","test_part":"test","phrase":"10bis","condition":"imitation","subject":"s1","trial_type":"audio-button-response","trial_index":98,"time_elapsed":298175,"internal_node_id":"0.0-1.0-0.47"},{"rt":4137.390000003506,"stimulus":"audio/actual/s10-guide-10bis_jenseigne_beaucoup.mp3","button_pressed":"1","test_part":"test","phrase":"10bis","condition":"guide","subject":"s10","trial_type":"audio-button-response","trial_index":100,"time_elapsed":302908,"internal_node_id":"0.0-1.0-0.48"},{"rt":2032.6400000049034,"stimulus":"audio/actual/s1-guide-10_jean_saigne_beaucoup.mp3","button_pressed":"0","test_part":"test","phrase":"10","condition":"guide","subject":"s1","trial_type":"audio-button-response","trial_index":102,"time_elapsed":305435,"internal_node_id":"0.0-1.0-0.49"},{"rt":10561.595000006491,"stimulus":"audio/actual/s9-guide-10_jean_saigne_beaucoup.mp3","button_pressed":"1","test_part":"test","phrase":"10","condition":"guide","subject":"s9","trial_type":"audio-button-response","trial_index":104,"time_elapsed":316531,"internal_node_id":"0.0-1.0-0.50"},{"rt":1555.079999990994,"stimulus":"audio/actual/s7-imitation-10_jean_saigne_beaucoup-3_cut1norm.mp3","button_pressed":"0","test_part":"test","phrase":"10","condition":"imitation","subject":"s7","trial_type":"audio-button-response","trial_index":106,"time_elapsed":321093,"internal_node_id":"0.0-1.0-0.51"},{"rt":1531.8650000117486,"stimulus":"audio/actual/s9-lecture-10bis_jenseigne_beaucoup-2_cut1norm.mp3","button_pressed":"1","test_part":"test","phrase":"10bis","condition":"lecture","subject":"s9","trial_type":"audio-button-response","trial_index":108,"time_elapsed":323102,"internal_node_id":"0.0-1.0-0.52"},{"rt":1178.5300000046846,"stimulus":"audio/actual/s2-imitation-10bis_jenseigne_beaucoup-5_cut1norm.mp3","button_pressed":"1","test_part":"test","phrase":"10bis","condition":"imitation","subject":"s2","trial_type":"audio-button-response","trial_index":110,"time_elapsed":324596,"internal_node_id":"0.0-1.0-0.53"},{"rt":1138.8149999984307,"stimulus":"audio/actual/s5-guide-10bis_jenseigne_beaucoup.mp3","button_pressed":"1","test_part":"test","phrase":"10bis","condition":"guide","subject":"s5","trial_type":"audio-button-response","trial_index":112,"time_elapsed":326237,"internal_node_id":"0.0-1.0-0.54"},{"rt":1695.4850000038277,"stimulus":"audio/actual/s4-lecture-10bis_jenseigne_beaucoup-0_cut1norm.mp3","button_pressed":"1","test_part":"test","phrase":"10bis","condition":"lecture","subject":"s4","trial_type":"audio-button-response","trial_index":114,"time_elapsed":328561,"internal_node_id":"0.0-1.0-0.55"},{"rt":1682.3250000015832,"stimulus":"audio/actual/s2-blind-10_jean_saigne_beaucoup.mp3","button_pressed":"1","test_part":"test","phrase":"10","condition":"blind","subject":"s2","trial_type":"audio-button-response","trial_index":116,"time_elapsed":330859,"internal_node_id":"0.0-1.0-0.56"},{"rt":1701.6200000070967,"stimulus":"audio/actual/s1-lecture-10_jean_saigne_beaucoup-2_cut1norm.mp3","button_pressed":"0","test_part":"test","phrase":"10","condition":"lecture","subject":"s1","trial_type":"audio-button-response","trial_index":118,"time_elapsed":333031,"internal_node_id":"0.0-1.0-0.57"},{"rt":1590.1600000070175,"stimulus":"audio/actual/s2-guide-10_jean_saigne_beaucoup.mp3","button_pressed":"0","test_part":"test","phrase":"10","condition":"guide","subject":"s2","trial_type":"audio-button-response","trial_index":120,"time_elapsed":335007,"internal_node_id":"0.0-1.0-0.58"},{"rt":1582.1100000030128,"stimulus":"audio/actual/s8-lecture-10_jean_saigne_beaucoup-10_cut1norm.mp3","button_pressed":"0","test_part":"test","phrase":"10","condition":"lecture","subject":"s8","trial_type":"audio-button-response","trial_index":122,"time_elapsed":336943,"internal_node_id":"0.0-1.0-0.59"},{"rt":1339.349999994738,"stimulus":"audio/actual/s3-guide-10bis_jenseigne_beaucoup.mp3","button_pressed":"0","test_part":"test","phrase":"10bis","condition":"guide","subject":"s3","trial_type":"audio-button-response","trial_index":124,"time_elapsed":338749,"internal_node_id":"0.0-1.0-0.60"},{"rt":1781.954999998561,"stimulus":"audio/actual/s2-lecture-10bis_jenseigne_beaucoup-6_cut1norm.mp3","button_pressed":"1","test_part":"test","phrase":"10bis","condition":"lecture","subject":"s2","trial_type":"audio-button-response","trial_index":126,"time_elapsed":341039,"internal_node_id":"0.0-1.0-0.61"},{"rt":2139.515000002575,"stimulus":"audio/actual/s9-imitation-10_jean_saigne_beaucoup-4_cut1norm.mp3","button_pressed":"0","test_part":"test","phrase":"10","condition":"imitation","subject":"s9","trial_type":"audio-button-response","trial_index":128,"time_elapsed":343693,"internal_node_id":"0.0-1.0-0.62"},{"rt":8564.250000010361,"stimulus":"audio/actual/s4-imitation-10_jean_saigne_beaucoup-1_cut1norm.mp3","button_pressed":"2","test_part":"test","phrase":"10","condition":"imitation","subject":"s4","trial_type":"audio-button-response","trial_index":130,"time_elapsed":352717,"internal_node_id":"0.0-1.0-0.63"},{"rt":2072.084999992512,"stimulus":"audio/actual/s4-imitation-10_jean_saigne_beaucoup-1_cut1norm.mp3","button_pressed":"0","test_part":"test","phrase":"10","condition":"imitation","subject":"s4","trial_type":"audio-button-response","trial_index":131,"time_elapsed":354791,"internal_node_id":"0.0-1.0-1.63-0.63"},{"rt":2013.8049999950454,"stimulus":"audio/actual/s6-guide-10_jean_saigne_beaucoup.mp3","button_pressed":"1","test_part":"test","phrase":"10","condition":"guide","subject":"s6","trial_type":"audio-button-response","trial_index":133,"time_elapsed":357350,"internal_node_id":"0.0-1.0-0.64"},{"rt":1412.3649999964982,"stimulus":"audio/actual/s3-imitation-10bis_jenseigne_beaucoup-3_cut1norm.mp3","button_pressed":"1","test_part":"test","phrase":"10bis","condition":"imitation","subject":"s3","trial_type":"audio-button-response","trial_index":135,"time_elapsed":359341,"internal_node_id":"0.0-1.0-0.65"},{"rt":1122.205000006943,"stimulus":"audio/actual/s6-lecture-10bis_jenseigne_beaucoup-0_cut1norm.mp3","button_pressed":"1","test_part":"test","phrase":"10bis","condition":"lecture","subject":"s6","trial_type":"audio-button-response","trial_index":137,"time_elapsed":360978,"internal_node_id":"0.0-1.0-0.66"},{"rt":1177.7800000127172,"stimulus":"audio/actual/s7-lecture-10_jean_saigne_beaucoup-8_cut1norm.mp3","button_pressed":"1","test_part":"test","phrase":"10","condition":"lecture","subject":"s7","trial_type":"audio-button-response","trial_index":139,"time_elapsed":362835,"internal_node_id":"0.0-1.0-0.67"},{"rt":3263.605000000098,"stimulus":"audio/actual/s6-guide-10bis_jenseigne_beaucoup.mp3","button_pressed":"0","test_part":"test","phrase":"10bis","condition":"guide","subject":"s6","trial_type":"audio-button-response","trial_index":141,"time_elapsed":366712,"internal_node_id":"0.0-1.0-0.68"},{"rt":32297.03000000154,"stimulus":"audio/actual/s7-imitation-10bis_jenseigne_beaucoup-2_cut1norm.mp3","button_pressed":"2","test_part":"test","phrase":"10bis","condition":"imitation","subject":"s7","trial_type":"audio-button-response","trial_index":143,"time_elapsed":399402,"internal_node_id":"0.0-1.0-0.69"},{"rt":1365.8500000019558,"stimulus":"audio/actual/s7-imitation-10bis_jenseigne_beaucoup-2_cut1norm.mp3","button_pressed":"1","test_part":"test","phrase":"10bis","condition":"imitation","subject":"s7","trial_type":"audio-button-response","trial_index":144,"time_elapsed":400769,"internal_node_id":"0.0-1.0-1.69-0.69"},{"rt":1848.0749999871477,"stimulus":"audio/actual/s4-blind-10_jean_saigne_beaucoup.mp3","button_pressed":"0","test_part":"test","phrase":"10","condition":"blind","subject":"s4","trial_type":"audio-button-response","trial_index":146,"time_elapsed":403158,"internal_node_id":"0.0-1.0-0.70"},{"rt":1795.429999998305,"stimulus":"audio/actual/s7-blind-10_jean_saigne_beaucoup.mp3","button_pressed":"0","test_part":"test","phrase":"10","condition":"blind","subject":"s7","trial_type":"audio-button-response","trial_index":148,"time_elapsed":405337,"internal_node_id":"0.0-1.0-0.71"},{"rt":1832.4250000005122,"stimulus":"audio/actual/s3-lecture-10bis_jenseigne_beaucoup-3_cut1norm.mp3","button_pressed":"0","test_part":"test","phrase":"10bis","condition":"lecture","subject":"s3","trial_type":"audio-button-response","trial_index":150,"time_elapsed":407893,"internal_node_id":"0.0-1.0-0.72"},{"rt":1310.169999997015,"stimulus":"audio/actual/s8-imitation-10bis_jenseigne_beaucoup-11_cut1norm.mp3","button_pressed":"0","test_part":"test","phrase":"10bis","condition":"imitation","subject":"s8","trial_type":"audio-button-response","trial_index":152,"time_elapsed":409619,"internal_node_id":"0.0-1.0-0.73"},{"rt":1244.059999997262,"stimulus":"audio/actual/s7-lecture-10bis_jenseigne_beaucoup-9_cut1norm.mp3","button_pressed":"1","test_part":"test","phrase":"10bis","condition":"lecture","subject":"s7","trial_type":"audio-button-response","trial_index":154,"time_elapsed":411225,"internal_node_id":"0.0-1.0-0.74"},{"rt":1854.655000002822,"stimulus":"audio/actual/s9-blind-10_jean_saigne_beaucoup.mp3","button_pressed":"0","test_part":"test","phrase":"10","condition":"blind","subject":"s9","trial_type":"audio-button-response","trial_index":156,"time_elapsed":413355,"internal_node_id":"0.0-1.0-0.75"},{"rt":1635.0600000005215,"stimulus":"audio/actual/s10-imitation-10bis_jenseigne_beaucoup-10_cut1norm.mp3","button_pressed":"1","test_part":"test","phrase":"10bis","condition":"imitation","subject":"s10","trial_type":"audio-button-response","trial_index":158,"time_elapsed":415528,"internal_node_id":"0.0-1.0-0.76"},{"rt":23818.289999995613,"stimulus":"audio/actual/s2-guide-10bis_jenseigne_beaucoup.mp3","button_pressed":"2","test_part":"test","phrase":"10bis","condition":"guide","subject":"s2","trial_type":"audio-button-response","trial_index":160,"time_elapsed":439631,"internal_node_id":"0.0-1.0-0.77"},{"rt":2143.8400000042748,"stimulus":"audio/actual/s2-guide-10bis_jenseigne_beaucoup.mp3","button_pressed":"0","test_part":"test","phrase":"10bis","condition":"guide","subject":"s2","trial_type":"audio-button-response","trial_index":161,"time_elapsed":441776,"internal_node_id":"0.0-1.0-1.77-0.77"},{"rt":1758.1050000007963,"stimulus":"audio/actual/s9-lecture-10_jean_saigne_beaucoup-3_cut1norm.mp3","button_pressed":"0","test_part":"test","phrase":"10","condition":"lecture","subject":"s9","trial_type":"audio-button-response","trial_index":163,"time_elapsed":444901,"internal_node_id":"0.0-1.0-0.78"},{"rt":1430.2000000025146,"stimulus":"audio/actual/s7-blind-10bis_jenseigne_beaucoup.mp3","button_pressed":"1","test_part":"test","phrase":"10bis","condition":"blind","subject":"s7","trial_type":"audio-button-response","trial_index":165,"time_elapsed":446861,"internal_node_id":"0.0-1.0-0.79"}]