[{"rt":2627.605000001495,"stimulus":"audio/actual/s6-imitation-10bis_jenseigne_beaucoup-4_cut1norm.mp3","button_pressed":"0","test_part":"test","phrase":"10bis","condition":"imitation","subject":"s6","trial_type":"audio-button-response","trial_index":1,"time_elapsed":32671,"internal_node_id":"0.0-1.0-0.0"},{"rt":2774.860000004992,"stimulus":"audio/actual/s3-guide-10_jean_saigne_beaucoup.mp3","button_pressed":"0","test_part":"test","phrase":"10","condition":"guide","subject":"s3","trial_type":"audio-button-response","trial_index":3,"time_elapsed":36126,"internal_node_id":"0.0-1.0-0.1"},{"rt":1840.9850000025472,"stimulus":"audio/actual/s9-lecture-10bis_jenseigne_beaucoup-2_cut1norm.mp3","button_pressed":"1","test_part":"test","phrase":"10bis","condition":"lecture","subject":"s9","trial_type":"audio-button-response","trial_index":5,"time_elapsed":42706,"internal_node_id":"0.0-1.0-0.2"},{"rt":1074.239999987185,"stimulus":"audio/actual/s3-imitation-10_jean_saigne_beaucoup-2_cut1norm.mp3","button_pressed":"2","test_part":"test","phrase":"10","condition":"imitation","subject":"s3","trial_type":"audio-button-response","trial_index":7,"time_elapsed":45278,"internal_node_id":"0.0-1.0-0.3"},{"rt":1705.5399999953806,"stimulus":"audio/actual/s3-imitation-10_jean_saigne_beaucoup-2_cut1norm.mp3","button_pressed":"0","test_part":"test","phrase":"10","condition":"imitation","subject":"s3","trial_type":"audio-button-response","trial_index":8,"time_elapsed":46987,"internal_node_id":"0.0-1.0-1.3-0.3"},{"rt":3104.1949999926146,"stimulus":"audio/actual/s9-guide-10_jean_saigne_beaucoup.mp3","button_pressed":"1","test_part":"test","phrase":"10","condition":"guide","subject":"s9","trial_type":"audio-button-response","trial_index":10,"time_elapsed":51698,"internal_node_id":"0.0-1.0-0.4"},{"rt":1965.0050000054762,"stimulus":"audio/actual/s2-guide-10bis_jenseigne_beaucoup.mp3","button_pressed":"0","test_part":"test","phrase":"10bis","condition":"guide","subject":"s2","trial_type":"audio-button-response","trial_index":12,"time_elapsed":54748,"internal_node_id":"0.0-1.0-0.5"},{"rt":2802.93000000529,"stimulus":"audio/actual/s1-guide-10bis_jenseigne_beaucoup.mp3","button_pressed":"0","test_part":"test","phrase":"10bis","condition":"guide","subject":"s1","trial_type":"audio-button-response","trial_index":14,"time_elapsed":58778,"internal_node_id":"0.0-1.0-0.6"},{"rt":2093.6800000054063,"stimulus":"audio/actual/s10-blind-10_jean_saigne_beaucoup.mp3","button_pressed":"1","test_part":"test","phrase":"10","condition":"blind","subject":"s10","trial_type":"audio-button-response","trial_index":16,"time_elapsed":61459,"internal_node_id":"0.0-1.0-0.7"},{"rt":3281.215000009979,"stimulus":"audio/actual/s2-imitation-10bis_jenseigne_beaucoup-5_cut1norm.mp3","button_pressed":"0","test_part":"test","phrase":"10bis","condition":"imitation","subject":"s2","trial_type":"audio-button-response","trial_index":18,"time_elapsed":65745,"internal_node_id":"0.0-1.0-0.8"},{"rt":1893.114999998943,"stimulus":"audio/actual/s6-imitation-10_jean_saigne_beaucoup-5_cut1norm.mp3","button_pressed":"0","test_part":"test","phrase":"10","condition":"imitation","subject":"s6","trial_type":"audio-button-response","trial_index":20,"time_elapsed":68578,"internal_node_id":"0.0-1.0-0.9"},{"rt":2723.614999995334,"stimulus":"audio/actual/s10-lecture-10bis_jenseigne_beaucoup-11_cut1norm.mp3","button_pressed":"0","test_part":"test","phrase":"10bis","condition":"lecture","subject":"s10","trial_type":"audio-button-response","trial_index":22,"time_elapsed":71958,"internal_node_id":"0.0-1.0-0.10"},{"rt":3853.1549999897834,"stimulus":"audio/actual/s6-guide-10_jean_saigne_beaucoup.mp3","button_pressed":"0","test_part":"test","phrase":"10","condition":"guide","subject":"s6","trial_type":"audio-button-response","trial_index":24,"time_elapsed":76328,"internal_node_id":"0.0-1.0-0.11"},{"rt":1742.935000002035,"stimulus":"audio/actual/s5-blind-10_jean_saigne_beaucoup.mp3","button_pressed":"1","test_part":"test","phrase":"10","condition":"blind","subject":"s5","trial_type":"audio-button-response","trial_index":26,"time_elapsed":78438,"internal_node_id":"0.0-1.0-0.12"},{"rt":1763.4600000019418,"stimulus":"audio/actual/s6-lecture-10bis_jenseigne_beaucoup-0_cut1norm.mp3","button_pressed":"0","test_part":"test","phrase":"10bis","condition":"lecture","subject":"s6","trial_type":"audio-button-response","trial_index":28,"time_elapsed":80727,"internal_node_id":"0.0-1.0-0.13"},{"rt":2113.1200000090757,"stimulus":"audio/actual/s9-lecture-10_jean_saigne_beaucoup-3_cut1norm.mp3","button_pressed":"0","test_part":"test","phrase":"10","condition":"lecture","subject":"s9","trial_type":"audio-button-response","trial_index":30,"time_elapsed":83288,"internal_node_id":"0.0-1.0-0.14"},{"rt":3751.379999986966,"stimulus":"audio/actual/s6-blind-10bis_jenseigne_beaucoup.mp3","button_pressed":"0","test_part":"test","phrase":"10bis","condition":"blind","subject":"s6","trial_type":"audio-button-response","trial_index":32,"time_elapsed":87597,"internal_node_id":"0.0-1.0-0.15"},{"rt":2911.3349999970524,"stimulus":"audio/actual/s1-lecture-10_jean_saigne_beaucoup-2_cut1norm.mp3","button_pressed":"0","test_part":"test","phrase":"10","condition":"lecture","subject":"s1","trial_type":"audio-button-response","trial_index":34,"time_elapsed":90597,"internal_node_id":"0.0-1.0-0.16"},{"rt":2492.759999993723,"stimulus":"audio/actual/s6-lecture-10_jean_saigne_beaucoup-1_cut1norm.mp3","button_pressed":"0","test_part":"test","phrase":"10","condition":"lecture","subject":"s6","trial_type":"audio-button-response","trial_index":36,"time_elapsed":93408,"internal_node_id":"0.0-1.0-0.17"},{"rt":1631.8199999950593,"stimulus":"audio/actual/s8-guide-10bis_jenseigne_beaucoup.mp3","button_pressed":"1","test_part":"test","phrase":"10bis","condition":"guide","subject":"s8","trial_type":"audio-button-response","trial_index":38,"time_elapsed":95508,"internal_node_id":"0.0-1.0-0.18"},{"rt":3102.2700000030454,"stimulus":"audio/actual/s3-lecture-10bis_jenseigne_beaucoup-3_cut1norm.mp3","button_pressed":"0","test_part":"test","phrase":"10bis","condition":"lecture","subject":"s3","trial_type":"audio-button-response","trial_index":40,"time_elapsed":99128,"internal_node_id":"0.0-1.0-0.19"},{"rt":1748.2049999962328,"stimulus":"audio/actual/s7-lecture-10bis_jenseigne_beaucoup-9_cut1norm.mp3","button_pressed":"1","test_part":"test","phrase":"10bis","condition":"lecture","subject":"s7","trial_type":"audio-button-response","trial_index":42,"time_elapsed":101285,"internal_node_id":"0.0-1.0-0.20"},{"rt":3317.2800000029383,"stimulus":"audio/actual/s3-imitation-10bis_jenseigne_beaucoup-3_cut1norm.mp3","button_pressed":"1","test_part":"test","phrase":"10bis","condition":"imitation","subject":"s3","trial_type":"audio-button-response","trial_index":44,"time_elapsed":104953,"internal_node_id":"0.0-1.0-0.21"},{"rt":1882.4150000000373,"stimulus":"audio/actual/s10-imitation-10_jean_saigne_beaucoup-11_cut1norm.mp3","button_pressed":"0","test_part":"test","phrase":"10","condition":"imitation","subject":"s10","trial_type":"audio-button-response","trial_index":46,"time_elapsed":107218,"internal_node_id":"0.0-1.0-0.22"},{"rt":1596.6049999988172,"stimulus":"audio/actual/s9-guide-10bis_jenseigne_beaucoup.mp3","button_pressed":"1","test_part":"test","phrase":"10bis","condition":"guide","subject":"s9","trial_type":"audio-button-response","trial_index":48,"time_elapsed":109254,"internal_node_id":"0.0-1.0-0.23"},{"rt":4779.114999997546,"stimulus":"audio/actual/s3-blind-10bis_jenseigne_beaucoup.mp3","button_pressed":"1","test_part":"test","phrase":"10bis","condition":"blind","subject":"s3","trial_type":"audio-button-response","trial_index":50,"time_elapsed":114796,"internal_node_id":"0.0-1.0-0.24"},{"rt":2329.759999993257,"stimulus":"audio/actual/s9-blind-10_jean_saigne_beaucoup.mp3","button_pressed":"0","test_part":"test","phrase":"10","condition":"blind","subject":"s9","trial_type":"audio-button-response","trial_index":52,"time_elapsed":117837,"internal_node_id":"0.0-1.0-0.25"},{"rt":1586.4350000047125,"stimulus":"audio/actual/s2-blind-10_jean_saigne_beaucoup.mp3","button_pressed":"1","test_part":"test","phrase":"10","condition":"blind","subject":"s2","trial_type":"audio-button-response","trial_index":54,"time_elapsed":119954,"internal_node_id":"0.0-1.0-0.26"},{"rt":1991.345000002184,"stimulus":"audio/actual/s9-imitation-10_jean_saigne_beaucoup-4_cut1norm.mp3","button_pressed":"0","test_part":"test","phrase":"10","condition":"imitation","subject":"s9","trial_type":"audio-button-response","trial_index":56,"time_elapsed":122657,"internal_node_id":"0.0-1.0-0.27"},{"rt":1998.4549999935552,"stimulus":"audio/actual/s8-lecture-10bis_jenseigne_beaucoup-11_cut1norm.mp3","button_pressed":"1","test_part":"test","phrase":"10bis","condition":"lecture","subject":"s8","trial_type":"audio-button-response","trial_index":58,"time_elapsed":125065,"internal_node_id":"0.0-1.0-0.28"},{"rt":3515.914999996312,"stimulus":"audio/actual/s5-guide-10bis_jenseigne_beaucoup.mp3","button_pressed":"1","test_part":"test","phrase":"10bis","condition":"guide","subject":"s5","trial_type":"audio-button-response","trial_index":60,"time_elapsed":129052,"internal_node_id":"0.0-1.0-0.29"},{"rt":1631.424999999581,"stimulus":"audio/actual/s8-imitation-10_jean_saigne_beaucoup-10_cut1norm.mp3","button_pressed":"0","test_part":"test","phrase":"10","condition":"imitation","subject":"s8","trial_type":"audio-button-response","trial_index":62,"time_elapsed":131178,"internal_node_id":"0.0-1.0-0.30"},{"rt":1560.3750000009313,"stimulus":"audio/actual/s3-blind-10_jean_saigne_beaucoup.mp3","button_pressed":"0","test_part":"test","phrase":"10","condition":"blind","subject":"s3","trial_type":"audio-button-response","trial_index":64,"time_elapsed":133318,"internal_node_id":"0.0-1.0-0.31"},{"rt":1621.0849999915808,"stimulus":"audio/actual/s8-blind-10bis_jenseigne_beaucoup.mp3","button_pressed":"1","test_part":"test","phrase":"10bis","condition":"blind","subject":"s8","trial_type":"audio-button-response","trial_index":66,"time_elapsed":135808,"internal_node_id":"0.0-1.0-0.32"},{"rt":3420.6750000012107,"stimulus":"audio/actual/s7-lecture-10_jean_saigne_beaucoup-8_cut1norm.mp3","button_pressed":"0","test_part":"test","phrase":"10","condition":"lecture","subject":"s7","trial_type":"audio-button-response","trial_index":68,"time_elapsed":139628,"internal_node_id":"0.0-1.0-0.33"},{"rt":1836.5849999972852,"stimulus":"audio/actual/s1-guide-10_jean_saigne_beaucoup.mp3","button_pressed":"0","test_part":"test","phrase":"10","condition":"guide","subject":"s1","trial_type":"audio-button-response","trial_index":70,"time_elapsed":141814,"internal_node_id":"0.0-1.0-0.34"},{"rt":1730.5950000009034,"stimulus":"audio/actual/s8-lecture-10_jean_saigne_beaucoup-10_cut1norm.mp3","button_pressed":"0","test_part":"test","phrase":"10","condition":"lecture","subject":"s8","trial_type":"audio-button-response","trial_index":72,"time_elapsed":144057,"internal_node_id":"0.0-1.0-0.35"},{"rt":3210.849999988568,"stimulus":"audio/actual/s4-blind-10bis_jenseigne_beaucoup.mp3","button_pressed":"0","test_part":"test","phrase":"10bis","condition":"blind","subject":"s4","trial_type":"audio-button-response","trial_index":74,"time_elapsed":147758,"internal_node_id":"0.0-1.0-0.36"},{"rt":5550.465000007534,"stimulus":"audio/actual/s6-blind-10_jean_saigne_beaucoup.mp3","button_pressed":"2","test_part":"test","phrase":"10","condition":"blind","subject":"s6","trial_type":"audio-button-response","trial_index":76,"time_elapsed":153979,"internal_node_id":"0.0-1.0-0.37"},{"rt":3842.275000002701,"stimulus":"audio/actual/s6-blind-10_jean_saigne_beaucoup.mp3","button_pressed":"0","test_part":"test","phrase":"10","condition":"blind","subject":"s6","trial_type":"audio-button-response","trial_index":77,"time_elapsed":157828,"internal_node_id":"0.0-1.0-1.37-0.37"},{"rt":1926.0900000081165,"stimulus":"audio/actual/s3-lecture-10_jean_saigne_beaucoup-2_cut1norm.mp3","button_pressed":"0","test_part":"test","phrase":"10","condition":"lecture","subject":"s3","trial_type":"audio-button-response","trial_index":79,"time_elapsed":160564,"internal_node_id":"0.0-1.0-0.38"},{"rt":1668.4300000051735,"stimulus":"audio/actual/s5-lecture-10bis_jenseigne_beaucoup-4_cut1norm.mp3","button_pressed":"0","test_part":"test","phrase":"10bis","condition":"lecture","subject":"s5","trial_type":"audio-button-response","trial_index":81,"time_elapsed":163508,"internal_node_id":"0.0-1.0-0.39"},{"rt":3610.8749999984866,"stimulus":"audio/actual/s4-imitation-10_jean_saigne_beaucoup-1_cut1norm.mp3","button_pressed":"0","test_part":"test","phrase":"10","condition":"imitation","subject":"s4","trial_type":"audio-button-response","trial_index":83,"time_elapsed":167919,"internal_node_id":"0.0-1.0-0.40"},{"rt":1439.1600000089966,"stimulus":"audio/actual/s9-imitation-10bis_jenseigne_beaucoup-5_cut1norm.mp3","button_pressed":"1","test_part":"test","phrase":"10bis","condition":"imitation","subject":"s9","trial_type":"audio-button-response","trial_index":85,"time_elapsed":170449,"internal_node_id":"0.0-1.0-0.41"},{"rt":1591.6099999885773,"stimulus":"audio/actual/s1-blind-10_jean_saigne_beaucoup.mp3","button_pressed":"0","test_part":"test","phrase":"10","condition":"blind","subject":"s1","trial_type":"audio-button-response","trial_index":87,"time_elapsed":172480,"internal_node_id":"0.0-1.0-0.42"},{"rt":2067.304999989574,"stimulus":"audio/actual/s9-blind-10bis_jenseigne_beaucoup.mp3","button_pressed":"1","test_part":"test","phrase":"10bis","condition":"blind","subject":"s9","trial_type":"audio-button-response","trial_index":89,"time_elapsed":174994,"internal_node_id":"0.0-1.0-0.43"},{"rt":1637.300000002142,"stimulus":"audio/actual/s10-guide-10bis_jenseigne_beaucoup.mp3","button_pressed":"0","test_part":"test","phrase":"10bis","condition":"guide","subject":"s10","trial_type":"audio-button-response","trial_index":91,"time_elapsed":177166,"internal_node_id":"0.0-1.0-0.44"},{"rt":1430.965000006836,"stimulus":"audio/actual/s4-blind-10_jean_saigne_beaucoup.mp3","button_pressed":"0","test_part":"test","phrase":"10","condition":"blind","subject":"s4","trial_type":"audio-button-response","trial_index":93,"time_elapsed":179209,"internal_node_id":"0.0-1.0-0.45"},{"rt":3691.869999995106,"stimulus":"audio/actual/s2-guide-10_jean_saigne_beaucoup.mp3","button_pressed":"1","test_part":"test","phrase":"10","condition":"guide","subject":"s2","trial_type":"audio-button-response","trial_index":95,"time_elapsed":183410,"internal_node_id":"0.0-1.0-0.46"},{"rt":2377.7100000006612,"stimulus":"audio/actual/s7-imitation-10_jean_saigne_beaucoup-3_cut1norm.mp3","button_pressed":"0","test_part":"test","phrase":"10","condition":"imitation","subject":"s7","trial_type":"audio-button-response","trial_index":97,"time_elapsed":186117,"internal_node_id":"0.0-1.0-0.47"},{"rt":1397.994999992079,"stimulus":"audio/actual/s2-lecture-10_jean_saigne_beaucoup-7_cut1norm.mp3","button_pressed":"0","test_part":"test","phrase":"10","condition":"lecture","subject":"s2","trial_type":"audio-button-response","trial_index":99,"time_elapsed":187828,"internal_node_id":"0.0-1.0-0.48"},{"rt":4573.185000001104,"stimulus":"audio/actual/s7-blind-10_jean_saigne_beaucoup.mp3","button_pressed":"1","test_part":"test","phrase":"10","condition":"blind","subject":"s7","trial_type":"audio-button-response","trial_index":101,"time_elapsed":192863,"internal_node_id":"0.0-1.0-0.49"},{"rt":1768.9600000012433,"stimulus":"audio/actual/s8-guide-10_jean_saigne_beaucoup.mp3","button_pressed":"0","test_part":"test","phrase":"10","condition":"guide","subject":"s8","trial_type":"audio-button-response","trial_index":103,"time_elapsed":195529,"internal_node_id":"0.0-1.0-0.50"},{"rt":1812.820000006468,"stimulus":"audio/actual/s1-imitation-10bis_jenseigne_beaucoup-10_cut1norm.mp3","button_pressed":"1","test_part":"test","phrase":"10bis","condition":"imitation","subject":"s1","trial_type":"audio-button-response","trial_index":105,"time_elapsed":198042,"internal_node_id":"0.0-1.0-0.51"},{"rt":1854.5000000012806,"stimulus":"audio/actual/s8-blind-10_jean_saigne_beaucoup.mp3","button_pressed":"1","test_part":"test","phrase":"10","condition":"blind","subject":"s8","trial_type":"audio-button-response","trial_index":107,"time_elapsed":200344,"internal_node_id":"0.0-1.0-0.52"},{"rt":1705.5050000053598,"stimulus":"audio/actual/s7-imitation-10bis_jenseigne_beaucoup-2_cut1norm.mp3","button_pressed":"1","test_part":"test","phrase":"10bis","condition":"imitation","subject":"s7","trial_type":"audio-button-response","trial_index":109,"time_elapsed":202584,"internal_node_id":"0.0-1.0-0.53"},{"rt":1989.37000001024,"stimulus":"audio/actual/s10-guide-10_jean_saigne_beaucoup.mp3","button_pressed":"0","test_part":"test","phrase":"10","condition":"guide","subject":"s10","trial_type":"audio-button-response","trial_index":111,"time_elapsed":205018,"internal_node_id":"0.0-1.0-0.54"},{"rt":3417.745000013383,"stimulus":"audio/actual/s5-guide-10_jean_saigne_beaucoup.mp3","button_pressed":"2","test_part":"test","phrase":"10","condition":"guide","subject":"s5","trial_type":"audio-button-response","trial_index":113,"time_elapsed":208897,"internal_node_id":"0.0-1.0-0.55"},{"rt":1945.8449999947334,"stimulus":"audio/actual/s5-guide-10_jean_saigne_beaucoup.mp3","button_pressed":"0","test_part":"test","phrase":"10","condition":"guide","subject":"s5","trial_type":"audio-button-response","trial_index":114,"time_elapsed":210847,"internal_node_id":"0.0-1.0-1.55-0.55"},{"rt":3727.790000004461,"stimulus":"audio/actual/s1-blind-10bis_jenseigne_beaucoup.mp3","button_pressed":"2","test_part":"test","phrase":"10bis","condition":"blind","subject":"s1","trial_type":"audio-button-response","trial_index":116,"time_elapsed":215227,"internal_node_id":"0.0-1.0-0.56"},{"rt":1235.4000000050291,"stimulus":"audio/actual/s1-blind-10bis_jenseigne_beaucoup.mp3","button_pressed":"1","test_part":"test","phrase":"10bis","condition":"blind","subject":"s1","trial_type":"audio-button-response","trial_index":117,"time_elapsed":216467,"internal_node_id":"0.0-1.0-1.56-0.56"},{"rt":2747.6650000025984,"stimulus":"audio/actual/s2-lecture-10bis_jenseigne_beaucoup-6_cut1norm.mp3","button_pressed":"1","test_part":"test","phrase":"10bis","condition":"lecture","subject":"s2","trial_type":"audio-button-response","trial_index":119,"time_elapsed":219757,"internal_node_id":"0.0-1.0-0.57"},{"rt":1988.5150000045542,"stimulus":"audio/actual/s4-lecture-10bis_jenseigne_beaucoup-0_cut1norm.mp3","button_pressed":"1","test_part":"test","phrase":"10bis","condition":"lecture","subject":"s4","trial_type":"audio-button-response","trial_index":121,"time_elapsed":222479,"internal_node_id":"0.0-1.0-0.58"},{"rt":2157.3300000018207,"stimulus":"audio/actual/s7-guide-10_jean_saigne_beaucoup.mp3","button_pressed":"1","test_part":"test","phrase":"10","condition":"guide","subject":"s7","trial_type":"audio-button-response","trial_index":123,"time_elapsed":225047,"internal_node_id":"0.0-1.0-0.59"},{"rt":2129.034999990836,"stimulus":"audio/actual/s3-guide-10bis_jenseigne_beaucoup.mp3","button_pressed":"1","test_part":"test","phrase":"10bis","condition":"guide","subject":"s3","trial_type":"audio-button-response","trial_index":125,"time_elapsed":227569,"internal_node_id":"0.0-1.0-0.60"},{"rt":1478.2950000080746,"stimulus":"audio/actual/s5-lecture-10_jean_saigne_beaucoup-5_cut1norm.mp3","button_pressed":"0","test_part":"test","phrase":"10","condition":"lecture","subject":"s5","trial_type":"audio-button-response","trial_index":127,"time_elapsed":229368,"internal_node_id":"0.0-1.0-0.61"},{"rt":2708.0299999943236,"stimulus":"audio/actual/s10-blind-10bis_jenseigne_beaucoup.mp3","button_pressed":"0","test_part":"test","phrase":"10bis","condition":"blind","subject":"s10","trial_type":"audio-button-response","trial_index":129,"time_elapsed":232588,"internal_node_id":"0.0-1.0-0.62"},{"rt":3186.7199999978766,"stimulus":"audio/actual/s4-guide-10_jean_saigne_beaucoup.mp3","button_pressed":"0","test_part":"test","phrase":"10","condition":"guide","subject":"s4","trial_type":"audio-button-response","trial_index":131,"time_elapsed":236118,"internal_node_id":"0.0-1.0-0.63"},{"rt":1523.2299999915995,"stimulus":"audio/actual/s7-blind-10bis_jenseigne_beaucoup.mp3","button_pressed":"1","test_part":"test","phrase":"10bis","condition":"blind","subject":"s7","trial_type":"audio-button-response","trial_index":133,"time_elapsed":238005,"internal_node_id":"0.0-1.0-0.64"},{"rt":2081.640000003972,"stimulus":"audio/actual/s5-imitation-10bis_jenseigne_beaucoup-11_cut1norm.mp3","button_pressed":"1","test_part":"test","phrase":"10bis","condition":"imitation","subject":"s5","trial_type":"audio-button-response","trial_index":135,"time_elapsed":240452,"internal_node_id":"0.0-1.0-0.65"},{"rt":2077.434999999241,"stimulus":"audio/actual/s4-imitation-10bis_jenseigne_beaucoup-0_cut1norm.mp3","button_pressed":"0","test_part":"test","phrase":"10bis","condition":"imitation","subject":"s4","trial_type":"audio-button-response","trial_index":137,"time_elapsed":242858,"internal_node_id":"0.0-1.0-0.66"},{"rt":1996.4800000016112,"stimulus":"audio/actual/s1-lecture-10bis_jenseigne_beaucoup-3_cut1norm.mp3","button_pressed":"0","test_part":"test","phrase":"10bis","condition":"lecture","subject":"s1","trial_type":"audio-button-response","trial_index":139,"time_elapsed":245147,"internal_node_id":"0.0-1.0-0.67"},{"rt":1744.3550000025425,"stimulus":"audio/actual/s8-imitation-10bis_jenseigne_beaucoup-11_cut1norm.mp3","button_pressed":"1","test_part":"test","phrase":"10bis","condition":"imitation","subject":"s8","trial_type":"audio-button-response","trial_index":141,"time_elapsed":247474,"internal_node_id":"0.0-1.0-0.68"},{"rt":2648.2899999973597,"stimulus":"audio/actual/s4-lecture-10_jean_saigne_beaucoup-1_cut1norm.mp3","button_pressed":"0","test_part":"test","phrase":"10","condition":"lecture","subject":"s4","trial_type":"audio-button-response","trial_index":143,"time_elapsed":250668,"internal_node_id":"0.0-1.0-0.69"},{"rt":1826.9149999978254,"stimulus":"audio/actual/s2-imitation-10_jean_saigne_beaucoup-4_cut1norm.mp3","button_pressed":"0","test_part":"test","phrase":"10","condition":"imitation","subject":"s2","trial_type":"audio-button-response","trial_index":145,"time_elapsed":253128,"internal_node_id":"0.0-1.0-0.70"},{"rt":2449.609999996028,"stimulus":"audio/actual/s5-imitation-10_jean_saigne_beaucoup-10_cut1norm.mp3","button_pressed":"0","test_part":"test","phrase":"10","condition":"imitation","subject":"s5","trial_type":"audio-button-response","trial_index":147,"time_elapsed":256450,"internal_node_id":"0.0-1.0-0.71"},{"rt":1847.620000000461,"stimulus":"audio/actual/s4-guide-10bis_jenseigne_beaucoup.mp3","button_pressed":"1","test_part":"test","phrase":"10bis","condition":"guide","subject":"s4","trial_type":"audio-button-response","trial_index":149,"time_elapsed":258580,"internal_node_id":"0.0-1.0-0.72"},{"rt":2966.180000003078,"stimulus":"audio/actual/s10-imitation-10bis_jenseigne_beaucoup-10_cut1norm.mp3","button_pressed":"1","test_part":"test","phrase":"10bis","condition":"imitation","subject":"s10","trial_type":"audio-button-response","trial_index":151,"time_elapsed":261888,"internal_node_id":"0.0-1.0-0.73"},{"rt":2203.7899999995716,"stimulus":"audio/actual/s5-blind-10bis_jenseigne_beaucoup.mp3","button_pressed":"1","test_part":"test","phrase":"10bis","condition":"blind","subject":"s5","trial_type":"audio-button-response","trial_index":153,"time_elapsed":264607,"internal_node_id":"0.0-1.0-0.74"},{"rt":1639.8349999944912,"stimulus":"audio/actual/s1-imitation-10_jean_saigne_beaucoup-11_cut1norm.mp3","button_pressed":"0","test_part":"test","phrase":"10","condition":"imitation","subject":"s1","trial_type":"audio-button-response","trial_index":155,"time_elapsed":266562,"internal_node_id":"0.0-1.0-0.75"},{"rt":1676.195000007283,"stimulus":"audio/actual/s10-lecture-10_jean_saigne_beaucoup-10_cut1norm.mp3","button_pressed":"1","test_part":"test","phrase":"10","condition":"lecture","subject":"s10","trial_type":"audio-button-response","trial_index":157,"time_elapsed":268558,"internal_node_id":"0.0-1.0-0.76"},{"rt":4015.8599999995204,"stimulus":"audio/actual/s6-guide-10bis_jenseigne_beaucoup.mp3","button_pressed":"1","test_part":"test","phrase":"10bis","condition":"guide","subject":"s6","trial_type":"audio-button-response","trial_index":159,"time_elapsed":273238,"internal_node_id":"0.0-1.0-0.77"},{"rt":2324.7099999862257,"stimulus":"audio/actual/s2-blind-10bis_jenseigne_beaucoup.mp3","button_pressed":"1","test_part":"test","phrase":"10bis","condition":"blind","subject":"s2","trial_type":"audio-button-response","trial_index":161,"time_elapsed":276067,"internal_node_id":"0.0-1.0-0.78"},{"rt":1831.9199999968987,"stimulus":"audio/actual/s7-guide-10bis_jenseigne_beaucoup.mp3","button_pressed":"1","test_part":"test","phrase":"10bis","condition":"guide","subject":"s7","trial_type":"audio-button-response","trial_index":163,"time_elapsed":278315,"internal_node_id":"0.0-1.0-0.79"}]