[{"rt":5061.4000000059605,"stimulus":"audio/actual/s9-lecture-10bis_jenseigne_beaucoup-2_cut1norm.mp3","button_pressed":"1","test_part":"test","phrase":"10bis","condition":"lecture","subject":"s9","trial_type":"audio-button-response","trial_index":1,"time_elapsed":7448,"internal_node_id":"0.0-1.0-0.0"},{"rt":2165.515000000596,"stimulus":"audio/actual/s4-lecture-10_jean_saigne_beaucoup-1_cut1norm.mp3","button_pressed":"0","test_part":"test","phrase":"10","condition":"lecture","subject":"s4","trial_type":"audio-button-response","trial_index":3,"time_elapsed":12298,"internal_node_id":"0.0-1.0-0.1"},{"rt":4769.190000020899,"stimulus":"audio/actual/s5-guide-10_jean_saigne_beaucoup.mp3","button_pressed":"0","test_part":"test","phrase":"10","condition":"guide","subject":"s5","trial_type":"audio-button-response","trial_index":5,"time_elapsed":18021,"internal_node_id":"0.0-1.0-0.2"},{"rt":3377.9400000348687,"stimulus":"audio/actual/s2-blind-10_jean_saigne_beaucoup.mp3","button_pressed":"1","test_part":"test","phrase":"10","condition":"blind","subject":"s2","trial_type":"audio-button-response","trial_index":7,"time_elapsed":22319,"internal_node_id":"0.0-1.0-0.3"},{"rt":5807.705000042915,"stimulus":"audio/actual/s10-imitation-10bis_jenseigne_beaucoup-10_cut1norm.mp3","button_pressed":"1","test_part":"test","phrase":"10bis","condition":"imitation","subject":"s10","trial_type":"audio-button-response","trial_index":9,"time_elapsed":29008,"internal_node_id":"0.0-1.0-0.4"},{"rt":5240.255000069737,"stimulus":"audio/actual/s6-guide-10_jean_saigne_beaucoup.mp3","button_pressed":"0","test_part":"test","phrase":"10","condition":"guide","subject":"s6","trial_type":"audio-button-response","trial_index":11,"time_elapsed":35125,"internal_node_id":"0.0-1.0-0.5"},{"rt":3619.955000001937,"stimulus":"audio/actual/s10-lecture-10bis_jenseigne_beaucoup-11_cut1norm.mp3","button_pressed":"1","test_part":"test","phrase":"10bis","condition":"lecture","subject":"s10","trial_type":"audio-button-response","trial_index":13,"time_elapsed":39643,"internal_node_id":"0.0-1.0-0.6"},{"rt":1832.2599999373779,"stimulus":"audio/actual/s1-imitation-10_jean_saigne_beaucoup-11_cut1norm.mp3","button_pressed":"0","test_part":"test","phrase":"10","condition":"imitation","subject":"s1","trial_type":"audio-button-response","trial_index":15,"time_elapsed":42309,"internal_node_id":"0.0-1.0-0.7"},{"rt":1709.8250000271946,"stimulus":"audio/actual/s5-guide-10bis_jenseigne_beaucoup.mp3","button_pressed":"1","test_part":"test","phrase":"10bis","condition":"guide","subject":"s5","trial_type":"audio-button-response","trial_index":17,"time_elapsed":44784,"internal_node_id":"0.0-1.0-0.8"},{"rt":3229.3050000444055,"stimulus":"audio/actual/s6-imitation-10bis_jenseigne_beaucoup-4_cut1norm.mp3","button_pressed":"2","test_part":"test","phrase":"10bis","condition":"imitation","subject":"s6","trial_type":"audio-button-response","trial_index":19,"time_elapsed":49855,"internal_node_id":"0.0-1.0-0.9"},{"rt":5511.76000002306,"stimulus":"audio/actual/s6-imitation-10bis_jenseigne_beaucoup-4_cut1norm.mp3","button_pressed":"0","test_part":"test","phrase":"10bis","condition":"imitation","subject":"s6","trial_type":"audio-button-response","trial_index":20,"time_elapsed":55369,"internal_node_id":"0.0-1.0-1.9-0.9"},{"rt":5467.6500000059605,"stimulus":"audio/actual/s4-blind-10bis_jenseigne_beaucoup.mp3","button_pressed":"1","test_part":"test","phrase":"10bis","condition":"blind","subject":"s4","trial_type":"audio-button-response","trial_index":22,"time_elapsed":61758,"internal_node_id":"0.0-1.0-0.10"},{"rt":3769.2549999337643,"stimulus":"audio/actual/s9-blind-10bis_jenseigne_beaucoup.mp3","button_pressed":"1","test_part":"test","phrase":"10bis","condition":"blind","subject":"s9","trial_type":"audio-button-response","trial_index":24,"time_elapsed":66336,"internal_node_id":"0.0-1.0-0.11"},{"rt":3192.034999956377,"stimulus":"audio/actual/s1-imitation-10bis_jenseigne_beaucoup-10_cut1norm.mp3","button_pressed":"1","test_part":"test","phrase":"10bis","condition":"imitation","subject":"s1","trial_type":"audio-button-response","trial_index":26,"time_elapsed":70633,"internal_node_id":"0.0-1.0-0.12"},{"rt":5076.905000023544,"stimulus":"audio/actual/s10-lecture-10_jean_saigne_beaucoup-10_cut1norm.mp3","button_pressed":"1","test_part":"test","phrase":"10","condition":"lecture","subject":"s10","trial_type":"audio-button-response","trial_index":28,"time_elapsed":76510,"internal_node_id":"0.0-1.0-0.13"},{"rt":2708.974999957718,"stimulus":"audio/actual/s7-lecture-10_jean_saigne_beaucoup-8_cut1norm.mp3","button_pressed":"0","test_part":"test","phrase":"10","condition":"lecture","subject":"s7","trial_type":"audio-button-response","trial_index":30,"time_elapsed":80003,"internal_node_id":"0.0-1.0-0.14"},{"rt":2976.370000047609,"stimulus":"audio/actual/s2-guide-10bis_jenseigne_beaucoup.mp3","button_pressed":"1","test_part":"test","phrase":"10bis","condition":"guide","subject":"s2","trial_type":"audio-button-response","trial_index":32,"time_elapsed":83757,"internal_node_id":"0.0-1.0-0.15"},{"rt":2093.7700000358745,"stimulus":"audio/actual/s10-blind-10bis_jenseigne_beaucoup.mp3","button_pressed":"0","test_part":"test","phrase":"10bis","condition":"blind","subject":"s10","trial_type":"audio-button-response","trial_index":34,"time_elapsed":86665,"internal_node_id":"0.0-1.0-0.16"},{"rt":2746.6600000625476,"stimulus":"audio/actual/s5-lecture-10bis_jenseigne_beaucoup-4_cut1norm.mp3","button_pressed":"1","test_part":"test","phrase":"10bis","condition":"lecture","subject":"s5","trial_type":"audio-button-response","trial_index":36,"time_elapsed":90118,"internal_node_id":"0.0-1.0-0.17"},{"rt":1653.180000022985,"stimulus":"audio/actual/s7-imitation-10_jean_saigne_beaucoup-3_cut1norm.mp3","button_pressed":"0","test_part":"test","phrase":"10","condition":"imitation","subject":"s7","trial_type":"audio-button-response","trial_index":38,"time_elapsed":92501,"internal_node_id":"0.0-1.0-0.18"},{"rt":5925.065000075847,"stimulus":"audio/actual/s10-blind-10_jean_saigne_beaucoup.mp3","button_pressed":"0","test_part":"test","phrase":"10","condition":"blind","subject":"s10","trial_type":"audio-button-response","trial_index":40,"time_elapsed":99375,"internal_node_id":"0.0-1.0-0.19"},{"rt":4566.4649999234825,"stimulus":"audio/actual/s2-lecture-10bis_jenseigne_beaucoup-6_cut1norm.mp3","button_pressed":"0","test_part":"test","phrase":"10bis","condition":"lecture","subject":"s2","trial_type":"audio-button-response","trial_index":42,"time_elapsed":104638,"internal_node_id":"0.0-1.0-0.20"},{"rt":1907.3250000365078,"stimulus":"audio/actual/s8-blind-10bis_jenseigne_beaucoup.mp3","button_pressed":"0","test_part":"test","phrase":"10bis","condition":"blind","subject":"s8","trial_type":"audio-button-response","trial_index":44,"time_elapsed":107244,"internal_node_id":"0.0-1.0-0.21"},{"rt":3477.4999999208376,"stimulus":"audio/actual/s3-imitation-10_jean_saigne_beaucoup-2_cut1norm.mp3","button_pressed":"0","test_part":"test","phrase":"10","condition":"imitation","subject":"s3","trial_type":"audio-button-response","trial_index":46,"time_elapsed":111461,"internal_node_id":"0.0-1.0-0.22"},{"rt":2043.7600000295788,"stimulus":"audio/actual/s6-imitation-10_jean_saigne_beaucoup-5_cut1norm.mp3","button_pressed":"0","test_part":"test","phrase":"10","condition":"imitation","subject":"s6","trial_type":"audio-button-response","trial_index":48,"time_elapsed":114289,"internal_node_id":"0.0-1.0-0.23"},{"rt":1732.6900000916794,"stimulus":"audio/actual/s8-blind-10_jean_saigne_beaucoup.mp3","button_pressed":"0","test_part":"test","phrase":"10","condition":"blind","subject":"s8","trial_type":"audio-button-response","trial_index":50,"time_elapsed":116734,"internal_node_id":"0.0-1.0-0.24"},{"rt":1652.490000007674,"stimulus":"audio/actual/s1-guide-10_jean_saigne_beaucoup.mp3","button_pressed":"0","test_part":"test","phrase":"10","condition":"guide","subject":"s1","trial_type":"audio-button-response","trial_index":52,"time_elapsed":119078,"internal_node_id":"0.0-1.0-0.25"},{"rt":3890.194999985397,"stimulus":"audio/actual/s2-imitation-10_jean_saigne_beaucoup-4_cut1norm.mp3","button_pressed":"0","test_part":"test","phrase":"10","condition":"imitation","subject":"s2","trial_type":"audio-button-response","trial_index":54,"time_elapsed":123979,"internal_node_id":"0.0-1.0-0.26"},{"rt":1918.1300000054762,"stimulus":"audio/actual/s5-imitation-10_jean_saigne_beaucoup-10_cut1norm.mp3","button_pressed":"0","test_part":"test","phrase":"10","condition":"imitation","subject":"s5","trial_type":"audio-button-response","trial_index":56,"time_elapsed":126636,"internal_node_id":"0.0-1.0-0.27"},{"rt":2241.2800000747666,"stimulus":"audio/actual/s2-lecture-10_jean_saigne_beaucoup-7_cut1norm.mp3","button_pressed":"0","test_part":"test","phrase":"10","condition":"lecture","subject":"s2","trial_type":"audio-button-response","trial_index":58,"time_elapsed":129604,"internal_node_id":"0.0-1.0-0.28"},{"rt":1862.9649999784306,"stimulus":"audio/actual/s3-imitation-10bis_jenseigne_beaucoup-3_cut1norm.mp3","button_pressed":"1","test_part":"test","phrase":"10bis","condition":"imitation","subject":"s3","trial_type":"audio-button-response","trial_index":60,"time_elapsed":132471,"internal_node_id":"0.0-1.0-0.29"},{"rt":3574.019999941811,"stimulus":"audio/actual/s8-lecture-10_jean_saigne_beaucoup-10_cut1norm.mp3","button_pressed":"0","test_part":"test","phrase":"10","condition":"lecture","subject":"s8","trial_type":"audio-button-response","trial_index":62,"time_elapsed":136406,"internal_node_id":"0.0-1.0-0.30"},{"rt":3309.389999951236,"stimulus":"audio/actual/s6-lecture-10_jean_saigne_beaucoup-1_cut1norm.mp3","button_pressed":"0","test_part":"test","phrase":"10","condition":"lecture","subject":"s6","trial_type":"audio-button-response","trial_index":64,"time_elapsed":140451,"internal_node_id":"0.0-1.0-0.31"},{"rt":1778.855000040494,"stimulus":"audio/actual/s9-guide-10_jean_saigne_beaucoup.mp3","button_pressed":"0","test_part":"test","phrase":"10","condition":"guide","subject":"s9","trial_type":"audio-button-response","trial_index":66,"time_elapsed":142996,"internal_node_id":"0.0-1.0-0.32"},{"rt":2608.104999992065,"stimulus":"audio/actual/s4-imitation-10bis_jenseigne_beaucoup-0_cut1norm.mp3","button_pressed":"0","test_part":"test","phrase":"10bis","condition":"imitation","subject":"s4","trial_type":"audio-button-response","trial_index":68,"time_elapsed":146095,"internal_node_id":"0.0-1.0-0.33"},{"rt":1897.6949999341741,"stimulus":"audio/actual/s3-blind-10bis_jenseigne_beaucoup.mp3","button_pressed":"1","test_part":"test","phrase":"10bis","condition":"blind","subject":"s3","trial_type":"audio-button-response","trial_index":70,"time_elapsed":148762,"internal_node_id":"0.0-1.0-0.34"},{"rt":3205.3000000305474,"stimulus":"audio/actual/s4-lecture-10bis_jenseigne_beaucoup-0_cut1norm.mp3","button_pressed":"0","test_part":"test","phrase":"10bis","condition":"lecture","subject":"s4","trial_type":"audio-button-response","trial_index":72,"time_elapsed":152840,"internal_node_id":"0.0-1.0-0.35"},{"rt":3561.8849999736995,"stimulus":"audio/actual/s3-blind-10_jean_saigne_beaucoup.mp3","button_pressed":"0","test_part":"test","phrase":"10","condition":"blind","subject":"s3","trial_type":"audio-button-response","trial_index":74,"time_elapsed":158412,"internal_node_id":"0.0-1.0-0.36"},{"rt":4048.934999969788,"stimulus":"audio/actual/s4-guide-10_jean_saigne_beaucoup.mp3","button_pressed":"1","test_part":"test","phrase":"10","condition":"guide","subject":"s4","trial_type":"audio-button-response","trial_index":76,"time_elapsed":163161,"internal_node_id":"0.0-1.0-0.37"},{"rt":3265.8550000051036,"stimulus":"audio/actual/s9-imitation-10bis_jenseigne_beaucoup-5_cut1norm.mp3","button_pressed":"0","test_part":"test","phrase":"10bis","condition":"imitation","subject":"s9","trial_type":"audio-button-response","trial_index":78,"time_elapsed":167509,"internal_node_id":"0.0-1.0-0.38"},{"rt":2628.1600000802428,"stimulus":"audio/actual/s2-guide-10_jean_saigne_beaucoup.mp3","button_pressed":"0","test_part":"test","phrase":"10","condition":"guide","subject":"s2","trial_type":"audio-button-response","trial_index":80,"time_elapsed":170890,"internal_node_id":"0.0-1.0-0.39"},{"rt":1647.5499999942258,"stimulus":"audio/actual/s3-guide-10bis_jenseigne_beaucoup.mp3","button_pressed":"1","test_part":"test","phrase":"10bis","condition":"guide","subject":"s3","trial_type":"audio-button-response","trial_index":82,"time_elapsed":173315,"internal_node_id":"0.0-1.0-0.40"},{"rt":2450.840000063181,"stimulus":"audio/actual/s10-guide-10bis_jenseigne_beaucoup.mp3","button_pressed":"0","test_part":"test","phrase":"10bis","condition":"guide","subject":"s10","trial_type":"audio-button-response","trial_index":84,"time_elapsed":176394,"internal_node_id":"0.0-1.0-0.41"},{"rt":3375.62499998603,"stimulus":"audio/actual/s1-lecture-10bis_jenseigne_beaucoup-3_cut1norm.mp3","button_pressed":"1","test_part":"test","phrase":"10bis","condition":"lecture","subject":"s1","trial_type":"audio-button-response","trial_index":86,"time_elapsed":180389,"internal_node_id":"0.0-1.0-0.42"},{"rt":2405.0999999744818,"stimulus":"audio/actual/s7-guide-10bis_jenseigne_beaucoup.mp3","button_pressed":"1","test_part":"test","phrase":"10bis","condition":"guide","subject":"s7","trial_type":"audio-button-response","trial_index":88,"time_elapsed":183660,"internal_node_id":"0.0-1.0-0.43"},{"rt":1775.8849998936057,"stimulus":"audio/actual/s3-lecture-10bis_jenseigne_beaucoup-3_cut1norm.mp3","button_pressed":"0","test_part":"test","phrase":"10bis","condition":"lecture","subject":"s3","trial_type":"audio-button-response","trial_index":90,"time_elapsed":186126,"internal_node_id":"0.0-1.0-0.44"},{"rt":1658.225000021048,"stimulus":"audio/actual/s7-guide-10_jean_saigne_beaucoup.mp3","button_pressed":"0","test_part":"test","phrase":"10","condition":"guide","subject":"s7","trial_type":"audio-button-response","trial_index":92,"time_elapsed":188400,"internal_node_id":"0.0-1.0-0.45"},{"rt":2188.8649999164045,"stimulus":"audio/actual/s9-lecture-10_jean_saigne_beaucoup-3_cut1norm.mp3","button_pressed":"0","test_part":"test","phrase":"10","condition":"lecture","subject":"s9","trial_type":"audio-button-response","trial_index":94,"time_elapsed":191139,"internal_node_id":"0.0-1.0-0.46"},{"rt":1382.3600000469014,"stimulus":"audio/actual/s8-imitation-10bis_jenseigne_beaucoup-11_cut1norm.mp3","button_pressed":"1","test_part":"test","phrase":"10bis","condition":"imitation","subject":"s8","trial_type":"audio-button-response","trial_index":96,"time_elapsed":193300,"internal_node_id":"0.0-1.0-0.47"},{"rt":2192.9650000529364,"stimulus":"audio/actual/s3-lecture-10_jean_saigne_beaucoup-2_cut1norm.mp3","button_pressed":"0","test_part":"test","phrase":"10","condition":"lecture","subject":"s3","trial_type":"audio-button-response","trial_index":98,"time_elapsed":196531,"internal_node_id":"0.0-1.0-0.48"},{"rt":2448.5400000121444,"stimulus":"audio/actual/s1-blind-10bis_jenseigne_beaucoup.mp3","button_pressed":"0","test_part":"test","phrase":"10bis","condition":"blind","subject":"s1","trial_type":"audio-button-response","trial_index":100,"time_elapsed":199682,"internal_node_id":"0.0-1.0-0.49"},{"rt":1950.029999949038,"stimulus":"audio/actual/s4-guide-10bis_jenseigne_beaucoup.mp3","button_pressed":"0","test_part":"test","phrase":"10bis","condition":"guide","subject":"s4","trial_type":"audio-button-response","trial_index":102,"time_elapsed":203531,"internal_node_id":"0.0-1.0-0.50"},{"rt":2098.3649999834597,"stimulus":"audio/actual/s7-lecture-10bis_jenseigne_beaucoup-9_cut1norm.mp3","button_pressed":"1","test_part":"test","phrase":"10bis","condition":"lecture","subject":"s7","trial_type":"audio-button-response","trial_index":104,"time_elapsed":206221,"internal_node_id":"0.0-1.0-0.51"},{"rt":1852.3049999494106,"stimulus":"audio/actual/s9-guide-10bis_jenseigne_beaucoup.mp3","button_pressed":"0","test_part":"test","phrase":"10bis","condition":"guide","subject":"s9","trial_type":"audio-button-response","trial_index":106,"time_elapsed":208870,"internal_node_id":"0.0-1.0-0.52"},{"rt":2188.380000065081,"stimulus":"audio/actual/s1-blind-10_jean_saigne_beaucoup.mp3","button_pressed":"1","test_part":"test","phrase":"10","condition":"blind","subject":"s1","trial_type":"audio-button-response","trial_index":108,"time_elapsed":211720,"internal_node_id":"0.0-1.0-0.53"},{"rt":1418.8999999314547,"stimulus":"audio/actual/s5-blind-10_jean_saigne_beaucoup.mp3","button_pressed":"0","test_part":"test","phrase":"10","condition":"blind","subject":"s5","trial_type":"audio-button-response","trial_index":110,"time_elapsed":213906,"internal_node_id":"0.0-1.0-0.54"},{"rt":2208.0950000090525,"stimulus":"audio/actual/s8-lecture-10bis_jenseigne_beaucoup-11_cut1norm.mp3","button_pressed":"1","test_part":"test","phrase":"10bis","condition":"lecture","subject":"s8","trial_type":"audio-button-response","trial_index":112,"time_elapsed":216844,"internal_node_id":"0.0-1.0-0.55"},{"rt":1616.219999967143,"stimulus":"audio/actual/s9-imitation-10_jean_saigne_beaucoup-4_cut1norm.mp3","button_pressed":"0","test_part":"test","phrase":"10","condition":"imitation","subject":"s9","trial_type":"audio-button-response","trial_index":114,"time_elapsed":219048,"internal_node_id":"0.0-1.0-0.56"},{"rt":1827.155000064522,"stimulus":"audio/actual/s1-lecture-10_jean_saigne_beaucoup-2_cut1norm.mp3","button_pressed":"0","test_part":"test","phrase":"10","condition":"lecture","subject":"s1","trial_type":"audio-button-response","trial_index":116,"time_elapsed":221504,"internal_node_id":"0.0-1.0-0.57"},{"rt":1661.2700000405312,"stimulus":"audio/actual/s4-blind-10_jean_saigne_beaucoup.mp3","button_pressed":"0","test_part":"test","phrase":"10","condition":"blind","subject":"s4","trial_type":"audio-button-response","trial_index":118,"time_elapsed":223596,"internal_node_id":"0.0-1.0-0.58"},{"rt":1486.945000011474,"stimulus":"audio/actual/s8-guide-10bis_jenseigne_beaucoup.mp3","button_pressed":"1","test_part":"test","phrase":"10bis","condition":"guide","subject":"s8","trial_type":"audio-button-response","trial_index":120,"time_elapsed":225891,"internal_node_id":"0.0-1.0-0.59"},{"rt":3570.409999927506,"stimulus":"audio/actual/s9-blind-10_jean_saigne_beaucoup.mp3","button_pressed":"0","test_part":"test","phrase":"10","condition":"blind","subject":"s9","trial_type":"audio-button-response","trial_index":122,"time_elapsed":229886,"internal_node_id":"0.0-1.0-0.60"},{"rt":1533.4250000305474,"stimulus":"audio/actual/s2-imitation-10bis_jenseigne_beaucoup-5_cut1norm.mp3","button_pressed":"1","test_part":"test","phrase":"10bis","condition":"imitation","subject":"s2","trial_type":"audio-button-response","trial_index":124,"time_elapsed":232090,"internal_node_id":"0.0-1.0-0.61"},{"rt":2593.140000011772,"stimulus":"audio/actual/s1-guide-10bis_jenseigne_beaucoup.mp3","button_pressed":"1","test_part":"test","phrase":"10bis","condition":"guide","subject":"s1","trial_type":"audio-button-response","trial_index":126,"time_elapsed":235652,"internal_node_id":"0.0-1.0-0.62"},{"rt":1704.814999946393,"stimulus":"audio/actual/s2-blind-10bis_jenseigne_beaucoup.mp3","button_pressed":"1","test_part":"test","phrase":"10bis","condition":"blind","subject":"s2","trial_type":"audio-button-response","trial_index":128,"time_elapsed":237897,"internal_node_id":"0.0-1.0-0.63"},{"rt":1492.0299999648705,"stimulus":"audio/actual/s5-lecture-10_jean_saigne_beaucoup-5_cut1norm.mp3","button_pressed":"0","test_part":"test","phrase":"10","condition":"lecture","subject":"s5","trial_type":"audio-button-response","trial_index":130,"time_elapsed":240272,"internal_node_id":"0.0-1.0-0.64"},{"rt":1649.9049999983981,"stimulus":"audio/actual/s7-blind-10_jean_saigne_beaucoup.mp3","button_pressed":"0","test_part":"test","phrase":"10","condition":"blind","subject":"s7","trial_type":"audio-button-response","trial_index":132,"time_elapsed":242606,"internal_node_id":"0.0-1.0-0.65"},{"rt":1217.1150000067428,"stimulus":"audio/actual/s5-imitation-10bis_jenseigne_beaucoup-11_cut1norm.mp3","button_pressed":"0","test_part":"test","phrase":"10bis","condition":"imitation","subject":"s5","trial_type":"audio-button-response","trial_index":134,"time_elapsed":244578,"internal_node_id":"0.0-1.0-0.66"},{"rt":2480.974999954924,"stimulus":"audio/actual/s3-guide-10_jean_saigne_beaucoup.mp3","button_pressed":"0","test_part":"test","phrase":"10","condition":"guide","subject":"s3","trial_type":"audio-button-response","trial_index":136,"time_elapsed":247859,"internal_node_id":"0.0-1.0-0.67"},{"rt":1979.2400000151247,"stimulus":"audio/actual/s6-blind-10_jean_saigne_beaucoup.mp3","button_pressed":"1","test_part":"test","phrase":"10","condition":"blind","subject":"s6","trial_type":"audio-button-response","trial_index":138,"time_elapsed":250565,"internal_node_id":"0.0-1.0-0.68"},{"rt":1336.7299999808893,"stimulus":"audio/actual/s4-imitation-10_jean_saigne_beaucoup-1_cut1norm.mp3","button_pressed":"0","test_part":"test","phrase":"10","condition":"imitation","subject":"s4","trial_type":"audio-button-response","trial_index":140,"time_elapsed":252668,"internal_node_id":"0.0-1.0-0.69"},{"rt":2771.610000054352,"stimulus":"audio/actual/s6-lecture-10bis_jenseigne_beaucoup-0_cut1norm.mp3","button_pressed":"1","test_part":"test","phrase":"10bis","condition":"lecture","subject":"s6","trial_type":"audio-button-response","trial_index":142,"time_elapsed":256100,"internal_node_id":"0.0-1.0-0.70"},{"rt":1354.9300000304356,"stimulus":"audio/actual/s7-imitation-10bis_jenseigne_beaucoup-2_cut1norm.mp3","button_pressed":"0","test_part":"test","phrase":"10bis","condition":"imitation","subject":"s7","trial_type":"audio-button-response","trial_index":144,"time_elapsed":258173,"internal_node_id":"0.0-1.0-0.71"},{"rt":1876.4499999815598,"stimulus":"audio/actual/s6-guide-10bis_jenseigne_beaucoup.mp3","button_pressed":"1","test_part":"test","phrase":"10bis","condition":"guide","subject":"s6","trial_type":"audio-button-response","trial_index":146,"time_elapsed":260659,"internal_node_id":"0.0-1.0-0.72"},{"rt":2049.265000037849,"stimulus":"audio/actual/s10-imitation-10_jean_saigne_beaucoup-11_cut1norm.mp3","button_pressed":"0","test_part":"test","phrase":"10","condition":"imitation","subject":"s10","trial_type":"audio-button-response","trial_index":148,"time_elapsed":263406,"internal_node_id":"0.0-1.0-0.73"},{"rt":2155.2150000352412,"stimulus":"audio/actual/s6-blind-10bis_jenseigne_beaucoup.mp3","button_pressed":"1","test_part":"test","phrase":"10bis","condition":"blind","subject":"s6","trial_type":"audio-button-response","trial_index":150,"time_elapsed":266345,"internal_node_id":"0.0-1.0-0.74"},{"rt":1452.0999999949709,"stimulus":"audio/actual/s5-blind-10bis_jenseigne_beaucoup.mp3","button_pressed":"1","test_part":"test","phrase":"10bis","condition":"blind","subject":"s5","trial_type":"audio-button-response","trial_index":152,"time_elapsed":268648,"internal_node_id":"0.0-1.0-0.75"},{"rt":1363.190000061877,"stimulus":"audio/actual/s7-blind-10bis_jenseigne_beaucoup.mp3","button_pressed":"1","test_part":"test","phrase":"10bis","condition":"blind","subject":"s7","trial_type":"audio-button-response","trial_index":154,"time_elapsed":270621,"internal_node_id":"0.0-1.0-0.76"},{"rt":1527.7050000149757,"stimulus":"audio/actual/s8-guide-10_jean_saigne_beaucoup.mp3","button_pressed":"0","test_part":"test","phrase":"10","condition":"guide","subject":"s8","trial_type":"audio-button-response","trial_index":156,"time_elapsed":272563,"internal_node_id":"0.0-1.0-0.77"},{"rt":1758.1749999662861,"stimulus":"audio/actual/s10-guide-10_jean_saigne_beaucoup.mp3","button_pressed":"0","test_part":"test","phrase":"10","condition":"guide","subject":"s10","trial_type":"audio-button-response","trial_index":158,"time_elapsed":274858,"internal_node_id":"0.0-1.0-0.78"},{"rt":1409.9200000055134,"stimulus":"audio/actual/s8-imitation-10_jean_saigne_beaucoup-10_cut1norm.mp3","button_pressed":"0","test_part":"test","phrase":"10","condition":"imitation","subject":"s8","trial_type":"audio-button-response","trial_index":160,"time_elapsed":276528,"internal_node_id":"0.0-1.0-0.79"}]