[{"rt":4135.68,"stimulus":"audio/actual/s8-lecture-10bis_jenseigne_beaucoup-11_cut1norm.mp3","button_pressed":"1","test_part":"test","phrase":"10bis","condition":"lecture","subject":"s8","trial_type":"audio-button-response","trial_index":1,"time_elapsed":6770,"internal_node_id":"0.0-1.0-0.0"},{"rt":2238.279999999999,"stimulus":"audio/actual/s5-guide-10bis_jenseigne_beaucoup.mp3","button_pressed":"0","test_part":"test","phrase":"10bis","condition":"guide","subject":"s5","trial_type":"audio-button-response","trial_index":3,"time_elapsed":10129,"internal_node_id":"0.0-1.0-0.1"},{"rt":3467.310000000005,"stimulus":"audio/actual/s8-blind-10_jean_saigne_beaucoup.mp3","button_pressed":"0","test_part":"test","phrase":"10","condition":"blind","subject":"s8","trial_type":"audio-button-response","trial_index":5,"time_elapsed":14589,"internal_node_id":"0.0-1.0-0.2"},{"rt":2166.5699999999997,"stimulus":"audio/actual/s3-imitation-10bis_jenseigne_beaucoup-3_cut1norm.mp3","button_pressed":"1","test_part":"test","phrase":"10bis","condition":"imitation","subject":"s3","trial_type":"audio-button-response","trial_index":7,"time_elapsed":18456,"internal_node_id":"0.0-1.0-0.3"},{"rt":3057.094999999994,"stimulus":"audio/actual/s10-lecture-10bis_jenseigne_beaucoup-11_cut1norm.mp3","button_pressed":"0","test_part":"test","phrase":"10bis","condition":"lecture","subject":"s10","trial_type":"audio-button-response","trial_index":9,"time_elapsed":22482,"internal_node_id":"0.0-1.0-0.4"},{"rt":2105.489999999998,"stimulus":"audio/actual/s7-blind-10bis_jenseigne_beaucoup.mp3","button_pressed":"1","test_part":"test","phrase":"10bis","condition":"blind","subject":"s7","trial_type":"audio-button-response","trial_index":11,"time_elapsed":25107,"internal_node_id":"0.0-1.0-0.5"},{"rt":2283.0100000000093,"stimulus":"audio/actual/s2-guide-10_jean_saigne_beaucoup.mp3","button_pressed":"0","test_part":"test","phrase":"10","condition":"guide","subject":"s2","trial_type":"audio-button-response","trial_index":13,"time_elapsed":28164,"internal_node_id":"0.0-1.0-0.6"},{"rt":2125.105000000003,"stimulus":"audio/actual/s5-blind-10_jean_saigne_beaucoup.mp3","button_pressed":"0","test_part":"test","phrase":"10","condition":"blind","subject":"s5","trial_type":"audio-button-response","trial_index":15,"time_elapsed":31485,"internal_node_id":"0.0-1.0-0.7"},{"rt":2342.574999999997,"stimulus":"audio/actual/s10-imitation-10_jean_saigne_beaucoup-11_cut1norm.mp3","button_pressed":"0","test_part":"test","phrase":"10","condition":"imitation","subject":"s10","trial_type":"audio-button-response","trial_index":17,"time_elapsed":34495,"internal_node_id":"0.0-1.0-0.8"},{"rt":1760.7750000000015,"stimulus":"audio/actual/s7-lecture-10bis_jenseigne_beaucoup-9_cut1norm.mp3","button_pressed":"1","test_part":"test","phrase":"10bis","condition":"lecture","subject":"s7","trial_type":"audio-button-response","trial_index":19,"time_elapsed":36961,"internal_node_id":"0.0-1.0-0.9"},{"rt":1802.8499999999985,"stimulus":"audio/actual/s5-lecture-10bis_jenseigne_beaucoup-4_cut1norm.mp3","button_pressed":"1","test_part":"test","phrase":"10bis","condition":"lecture","subject":"s5","trial_type":"audio-button-response","trial_index":21,"time_elapsed":39323,"internal_node_id":"0.0-1.0-0.10"},{"rt":2519.0049999999974,"stimulus":"audio/actual/s4-blind-10bis_jenseigne_beaucoup.mp3","button_pressed":"0","test_part":"test","phrase":"10bis","condition":"blind","subject":"s4","trial_type":"audio-button-response","trial_index":23,"time_elapsed":42448,"internal_node_id":"0.0-1.0-0.11"},{"rt":7103.17500000001,"stimulus":"audio/actual/s6-blind-10bis_jenseigne_beaucoup.mp3","button_pressed":"0","test_part":"test","phrase":"10bis","condition":"blind","subject":"s6","trial_type":"audio-button-response","trial_index":25,"time_elapsed":50088,"internal_node_id":"0.0-1.0-0.12"},{"rt":2955.029999999999,"stimulus":"audio/actual/s1-blind-10bis_jenseigne_beaucoup.mp3","button_pressed":"1","test_part":"test","phrase":"10bis","condition":"blind","subject":"s1","trial_type":"audio-button-response","trial_index":27,"time_elapsed":53524,"internal_node_id":"0.0-1.0-0.13"},{"rt":3126.350000000006,"stimulus":"audio/actual/s5-imitation-10_jean_saigne_beaucoup-10_cut1norm.mp3","button_pressed":"0","test_part":"test","phrase":"10","condition":"imitation","subject":"s5","trial_type":"audio-button-response","trial_index":29,"time_elapsed":57230,"internal_node_id":"0.0-1.0-0.14"},{"rt":1542.9750000000058,"stimulus":"audio/actual/s4-imitation-10bis_jenseigne_beaucoup-0_cut1norm.mp3","button_pressed":"1","test_part":"test","phrase":"10bis","condition":"imitation","subject":"s4","trial_type":"audio-button-response","trial_index":31,"time_elapsed":59863,"internal_node_id":"0.0-1.0-0.15"},{"rt":2038.0399999999936,"stimulus":"audio/actual/s5-guide-10_jean_saigne_beaucoup.mp3","button_pressed":"0","test_part":"test","phrase":"10","condition":"guide","subject":"s5","trial_type":"audio-button-response","trial_index":33,"time_elapsed":62550,"internal_node_id":"0.0-1.0-0.16"},{"rt":2877.9199999999983,"stimulus":"audio/actual/s10-lecture-10_jean_saigne_beaucoup-10_cut1norm.mp3","button_pressed":"0","test_part":"test","phrase":"10","condition":"lecture","subject":"s10","trial_type":"audio-button-response","trial_index":35,"time_elapsed":66038,"internal_node_id":"0.0-1.0-0.17"},{"rt":1407.7649999999994,"stimulus":"audio/actual/s8-guide-10bis_jenseigne_beaucoup.mp3","button_pressed":"1","test_part":"test","phrase":"10bis","condition":"guide","subject":"s8","trial_type":"audio-button-response","trial_index":37,"time_elapsed":68144,"internal_node_id":"0.0-1.0-0.18"},{"rt":2932.25499999999,"stimulus":"audio/actual/s10-blind-10bis_jenseigne_beaucoup.mp3","button_pressed":"0","test_part":"test","phrase":"10bis","condition":"blind","subject":"s10","trial_type":"audio-button-response","trial_index":39,"time_elapsed":71588,"internal_node_id":"0.0-1.0-0.19"},{"rt":4400.255000000005,"stimulus":"audio/actual/s2-imitation-10bis_jenseigne_beaucoup-5_cut1norm.mp3","button_pressed":"1","test_part":"test","phrase":"10bis","condition":"imitation","subject":"s2","trial_type":"audio-button-response","trial_index":41,"time_elapsed":77729,"internal_node_id":"0.0-1.0-0.20"},{"rt":3158.910000000018,"stimulus":"audio/actual/s4-lecture-10bis_jenseigne_beaucoup-0_cut1norm.mp3","button_pressed":"0","test_part":"test","phrase":"10bis","condition":"lecture","subject":"s4","trial_type":"audio-button-response","trial_index":43,"time_elapsed":81614,"internal_node_id":"0.0-1.0-0.21"},{"rt":3973.229999999996,"stimulus":"audio/actual/s8-guide-10_jean_saigne_beaucoup.mp3","button_pressed":"1","test_part":"test","phrase":"10","condition":"guide","subject":"s8","trial_type":"audio-button-response","trial_index":45,"time_elapsed":86150,"internal_node_id":"0.0-1.0-0.22"},{"rt":2149.5399999999936,"stimulus":"audio/actual/s4-imitation-10_jean_saigne_beaucoup-1_cut1norm.mp3","button_pressed":"0","test_part":"test","phrase":"10","condition":"imitation","subject":"s4","trial_type":"audio-button-response","trial_index":47,"time_elapsed":88709,"internal_node_id":"0.0-1.0-0.23"},{"rt":2318.2599999999948,"stimulus":"audio/actual/s2-lecture-10bis_jenseigne_beaucoup-6_cut1norm.mp3","button_pressed":"1","test_part":"test","phrase":"10bis","condition":"lecture","subject":"s2","trial_type":"audio-button-response","trial_index":49,"time_elapsed":91798,"internal_node_id":"0.0-1.0-0.24"},{"rt":1909.99500000001,"stimulus":"audio/actual/s9-blind-10bis_jenseigne_beaucoup.mp3","button_pressed":"1","test_part":"test","phrase":"10bis","condition":"blind","subject":"s9","trial_type":"audio-button-response","trial_index":51,"time_elapsed":94285,"internal_node_id":"0.0-1.0-0.25"},{"rt":1883.7949999999837,"stimulus":"audio/actual/s5-lecture-10_jean_saigne_beaucoup-5_cut1norm.mp3","button_pressed":"0","test_part":"test","phrase":"10","condition":"lecture","subject":"s5","trial_type":"audio-button-response","trial_index":53,"time_elapsed":96635,"internal_node_id":"0.0-1.0-0.26"},{"rt":1633.9100000000035,"stimulus":"audio/actual/s9-imitation-10bis_jenseigne_beaucoup-5_cut1norm.mp3","button_pressed":"1","test_part":"test","phrase":"10bis","condition":"imitation","subject":"s9","trial_type":"audio-button-response","trial_index":55,"time_elapsed":99297,"internal_node_id":"0.0-1.0-0.27"},{"rt":2497.9649999999965,"stimulus":"audio/actual/s6-lecture-10bis_jenseigne_beaucoup-0_cut1norm.mp3","button_pressed":"1","test_part":"test","phrase":"10bis","condition":"lecture","subject":"s6","trial_type":"audio-button-response","trial_index":57,"time_elapsed":102320,"internal_node_id":"0.0-1.0-0.28"},{"rt":2785.449999999997,"stimulus":"audio/actual/s3-lecture-10_jean_saigne_beaucoup-2_cut1norm.mp3","button_pressed":"0","test_part":"test","phrase":"10","condition":"lecture","subject":"s3","trial_type":"audio-button-response","trial_index":59,"time_elapsed":105632,"internal_node_id":"0.0-1.0-0.29"},{"rt":2603.459999999992,"stimulus":"audio/actual/s1-imitation-10_jean_saigne_beaucoup-11_cut1norm.mp3","button_pressed":"0","test_part":"test","phrase":"10","condition":"imitation","subject":"s1","trial_type":"audio-button-response","trial_index":61,"time_elapsed":108875,"internal_node_id":"0.0-1.0-0.30"},{"rt":2834.395000000004,"stimulus":"audio/actual/s10-blind-10_jean_saigne_beaucoup.mp3","button_pressed":"1","test_part":"test","phrase":"10","condition":"blind","subject":"s10","trial_type":"audio-button-response","trial_index":63,"time_elapsed":112266,"internal_node_id":"0.0-1.0-0.31"},{"rt":1887.3549999999814,"stimulus":"audio/actual/s3-guide-10bis_jenseigne_beaucoup.mp3","button_pressed":"0","test_part":"test","phrase":"10bis","condition":"guide","subject":"s3","trial_type":"audio-button-response","trial_index":65,"time_elapsed":114718,"internal_node_id":"0.0-1.0-0.32"},{"rt":1872.3450000000012,"stimulus":"audio/actual/s8-blind-10bis_jenseigne_beaucoup.mp3","button_pressed":"1","test_part":"test","phrase":"10bis","condition":"blind","subject":"s8","trial_type":"audio-button-response","trial_index":67,"time_elapsed":117080,"internal_node_id":"0.0-1.0-0.33"},{"rt":2174.6749999999884,"stimulus":"audio/actual/s3-imitation-10_jean_saigne_beaucoup-2_cut1norm.mp3","button_pressed":"0","test_part":"test","phrase":"10","condition":"imitation","subject":"s3","trial_type":"audio-button-response","trial_index":69,"time_elapsed":119733,"internal_node_id":"0.0-1.0-0.34"},{"rt":3957.9550000000163,"stimulus":"audio/actual/s9-guide-10_jean_saigne_beaucoup.mp3","button_pressed":"2","test_part":"test","phrase":"10","condition":"guide","subject":"s9","trial_type":"audio-button-response","trial_index":71,"time_elapsed":124237,"internal_node_id":"0.0-1.0-0.35"},{"rt":3558.1200000000244,"stimulus":"audio/actual/s9-guide-10_jean_saigne_beaucoup.mp3","button_pressed":"0","test_part":"test","phrase":"10","condition":"guide","subject":"s9","trial_type":"audio-button-response","trial_index":72,"time_elapsed":127798,"internal_node_id":"0.0-1.0-1.35-0.35"},{"rt":1499.7700000000186,"stimulus":"audio/actual/s5-blind-10bis_jenseigne_beaucoup.mp3","button_pressed":"1","test_part":"test","phrase":"10bis","condition":"blind","subject":"s5","trial_type":"audio-button-response","trial_index":74,"time_elapsed":130114,"internal_node_id":"0.0-1.0-0.36"},{"rt":1493.7749999999942,"stimulus":"audio/actual/s1-imitation-10bis_jenseigne_beaucoup-10_cut1norm.mp3","button_pressed":"1","test_part":"test","phrase":"10bis","condition":"imitation","subject":"s1","trial_type":"audio-button-response","trial_index":76,"time_elapsed":132261,"internal_node_id":"0.0-1.0-0.37"},{"rt":1608.890000000014,"stimulus":"audio/actual/s6-imitation-10bis_jenseigne_beaucoup-4_cut1norm.mp3","button_pressed":"1","test_part":"test","phrase":"10bis","condition":"imitation","subject":"s6","trial_type":"audio-button-response","trial_index":78,"time_elapsed":134184,"internal_node_id":"0.0-1.0-0.38"},{"rt":2161.1900000000023,"stimulus":"audio/actual/s3-blind-10bis_jenseigne_beaucoup.mp3","button_pressed":"1","test_part":"test","phrase":"10bis","condition":"blind","subject":"s3","trial_type":"audio-button-response","trial_index":80,"time_elapsed":136761,"internal_node_id":"0.0-1.0-0.39"},{"rt":1626.320000000007,"stimulus":"audio/actual/s7-imitation-10bis_jenseigne_beaucoup-2_cut1norm.mp3","button_pressed":"1","test_part":"test","phrase":"10bis","condition":"imitation","subject":"s7","trial_type":"audio-button-response","trial_index":82,"time_elapsed":138762,"internal_node_id":"0.0-1.0-0.40"},{"rt":1482.1500000000233,"stimulus":"audio/actual/s2-guide-10bis_jenseigne_beaucoup.mp3","button_pressed":"1","test_part":"test","phrase":"10bis","condition":"guide","subject":"s2","trial_type":"audio-button-response","trial_index":84,"time_elapsed":140737,"internal_node_id":"0.0-1.0-0.41"},{"rt":1889.7049999999872,"stimulus":"audio/actual/s8-imitation-10_jean_saigne_beaucoup-10_cut1norm.mp3","button_pressed":"0","test_part":"test","phrase":"10","condition":"imitation","subject":"s8","trial_type":"audio-button-response","trial_index":86,"time_elapsed":143065,"internal_node_id":"0.0-1.0-0.42"},{"rt":2662.1300000000047,"stimulus":"audio/actual/s4-blind-10_jean_saigne_beaucoup.mp3","button_pressed":"1","test_part":"test","phrase":"10","condition":"blind","subject":"s4","trial_type":"audio-button-response","trial_index":88,"time_elapsed":146164,"internal_node_id":"0.0-1.0-0.43"},{"rt":1478.2099999999919,"stimulus":"audio/actual/s7-guide-10bis_jenseigne_beaucoup.mp3","button_pressed":"1","test_part":"test","phrase":"10bis","condition":"guide","subject":"s7","trial_type":"audio-button-response","trial_index":90,"time_elapsed":148054,"internal_node_id":"0.0-1.0-0.44"},{"rt":1923.0699999999779,"stimulus":"audio/actual/s8-lecture-10_jean_saigne_beaucoup-10_cut1norm.mp3","button_pressed":"0","test_part":"test","phrase":"10","condition":"lecture","subject":"s8","trial_type":"audio-button-response","trial_index":92,"time_elapsed":150353,"internal_node_id":"0.0-1.0-0.45"},{"rt":1963.5100000000093,"stimulus":"audio/actual/s9-blind-10_jean_saigne_beaucoup.mp3","button_pressed":"0","test_part":"test","phrase":"10","condition":"blind","subject":"s9","trial_type":"audio-button-response","trial_index":94,"time_elapsed":152674,"internal_node_id":"0.0-1.0-0.46"},{"rt":1522.3949999999895,"stimulus":"audio/actual/s4-guide-10bis_jenseigne_beaucoup.mp3","button_pressed":"1","test_part":"test","phrase":"10bis","condition":"guide","subject":"s4","trial_type":"audio-button-response","trial_index":96,"time_elapsed":154593,"internal_node_id":"0.0-1.0-0.47"},{"rt":1614.070000000007,"stimulus":"audio/actual/s1-lecture-10bis_jenseigne_beaucoup-3_cut1norm.mp3","button_pressed":"0","test_part":"test","phrase":"10bis","condition":"lecture","subject":"s1","trial_type":"audio-button-response","trial_index":98,"time_elapsed":156916,"internal_node_id":"0.0-1.0-0.48"},{"rt":3649.5800000000163,"stimulus":"audio/actual/s3-guide-10_jean_saigne_beaucoup.mp3","button_pressed":"1","test_part":"test","phrase":"10","condition":"guide","subject":"s3","trial_type":"audio-button-response","trial_index":100,"time_elapsed":161079,"internal_node_id":"0.0-1.0-0.49"},{"rt":2037.6600000000035,"stimulus":"audio/actual/s1-lecture-10_jean_saigne_beaucoup-2_cut1norm.mp3","button_pressed":"0","test_part":"test","phrase":"10","condition":"lecture","subject":"s1","trial_type":"audio-button-response","trial_index":102,"time_elapsed":163708,"internal_node_id":"0.0-1.0-0.50"},{"rt":2391.8349999999627,"stimulus":"audio/actual/s10-guide-10bis_jenseigne_beaucoup.mp3","button_pressed":"0","test_part":"test","phrase":"10bis","condition":"guide","subject":"s10","trial_type":"audio-button-response","trial_index":104,"time_elapsed":166501,"internal_node_id":"0.0-1.0-0.51"},{"rt":6828.964999999967,"stimulus":"audio/actual/s2-blind-10_jean_saigne_beaucoup.mp3","button_pressed":"1","test_part":"test","phrase":"10","condition":"blind","subject":"s2","trial_type":"audio-button-response","trial_index":106,"time_elapsed":173931,"internal_node_id":"0.0-1.0-0.52"},{"rt":1461.4400000000023,"stimulus":"audio/actual/s7-guide-10_jean_saigne_beaucoup.mp3","button_pressed":"0","test_part":"test","phrase":"10","condition":"guide","subject":"s7","trial_type":"audio-button-response","trial_index":108,"time_elapsed":175787,"internal_node_id":"0.0-1.0-0.53"},{"rt":2161.8800000000047,"stimulus":"audio/actual/s6-lecture-10_jean_saigne_beaucoup-1_cut1norm.mp3","button_pressed":"0","test_part":"test","phrase":"10","condition":"lecture","subject":"s6","trial_type":"audio-button-response","trial_index":110,"time_elapsed":178233,"internal_node_id":"0.0-1.0-0.54"},{"rt":2293.1199999999953,"stimulus":"audio/actual/s1-guide-10bis_jenseigne_beaucoup.mp3","button_pressed":"1","test_part":"test","phrase":"10bis","condition":"guide","subject":"s1","trial_type":"audio-button-response","trial_index":112,"time_elapsed":181026,"internal_node_id":"0.0-1.0-0.55"},{"rt":4059.444999999978,"stimulus":"audio/actual/s3-blind-10_jean_saigne_beaucoup.mp3","button_pressed":"0","test_part":"test","phrase":"10","condition":"blind","subject":"s3","trial_type":"audio-button-response","trial_index":114,"time_elapsed":185440,"internal_node_id":"0.0-1.0-0.56"},{"rt":2242.485000000015,"stimulus":"audio/actual/s7-lecture-10_jean_saigne_beaucoup-8_cut1norm.mp3","button_pressed":"0","test_part":"test","phrase":"10","condition":"lecture","subject":"s7","trial_type":"audio-button-response","trial_index":116,"time_elapsed":188104,"internal_node_id":"0.0-1.0-0.57"},{"rt":3194.444999999978,"stimulus":"audio/actual/s9-lecture-10bis_jenseigne_beaucoup-2_cut1norm.mp3","button_pressed":"0","test_part":"test","phrase":"10bis","condition":"lecture","subject":"s9","trial_type":"audio-button-response","trial_index":118,"time_elapsed":191782,"internal_node_id":"0.0-1.0-0.58"},{"rt":1504.5649999999732,"stimulus":"audio/actual/s8-imitation-10bis_jenseigne_beaucoup-11_cut1norm.mp3","button_pressed":"1","test_part":"test","phrase":"10bis","condition":"imitation","subject":"s8","trial_type":"audio-button-response","trial_index":120,"time_elapsed":193645,"internal_node_id":"0.0-1.0-0.59"},{"rt":2499.514999999985,"stimulus":"audio/actual/s6-guide-10bis_jenseigne_beaucoup.mp3","button_pressed":"1","test_part":"test","phrase":"10bis","condition":"guide","subject":"s6","trial_type":"audio-button-response","trial_index":122,"time_elapsed":196535,"internal_node_id":"0.0-1.0-0.60"},{"rt":3054.99000000002,"stimulus":"audio/actual/s4-guide-10_jean_saigne_beaucoup.mp3","button_pressed":"0","test_part":"test","phrase":"10","condition":"guide","subject":"s4","trial_type":"audio-button-response","trial_index":124,"time_elapsed":201188,"internal_node_id":"0.0-1.0-0.61"},{"rt":5988.3399999999965,"stimulus":"audio/actual/s1-guide-10_jean_saigne_beaucoup.mp3","button_pressed":"1","test_part":"test","phrase":"10","condition":"guide","subject":"s1","trial_type":"audio-button-response","trial_index":126,"time_elapsed":207768,"internal_node_id":"0.0-1.0-0.62"},{"rt":1477.335000000021,"stimulus":"audio/actual/s10-imitation-10bis_jenseigne_beaucoup-10_cut1norm.mp3","button_pressed":"1","test_part":"test","phrase":"10bis","condition":"imitation","subject":"s10","trial_type":"audio-button-response","trial_index":128,"time_elapsed":209913,"internal_node_id":"0.0-1.0-0.63"},{"rt":2054.0599999999686,"stimulus":"audio/actual/s9-imitation-10_jean_saigne_beaucoup-4_cut1norm.mp3","button_pressed":"1","test_part":"test","phrase":"10","condition":"imitation","subject":"s9","trial_type":"audio-button-response","trial_index":130,"time_elapsed":212305,"internal_node_id":"0.0-1.0-0.64"},{"rt":2730.6449999999895,"stimulus":"audio/actual/s10-guide-10_jean_saigne_beaucoup.mp3","button_pressed":"1","test_part":"test","phrase":"10","condition":"guide","subject":"s10","trial_type":"audio-button-response","trial_index":132,"time_elapsed":215456,"internal_node_id":"0.0-1.0-0.65"},{"rt":2967.920000000013,"stimulus":"audio/actual/s2-blind-10bis_jenseigne_beaucoup.mp3","button_pressed":"1","test_part":"test","phrase":"10bis","condition":"blind","subject":"s2","trial_type":"audio-button-response","trial_index":134,"time_elapsed":218955,"internal_node_id":"0.0-1.0-0.66"},{"rt":2005.7700000000186,"stimulus":"audio/actual/s6-guide-10_jean_saigne_beaucoup.mp3","button_pressed":"1","test_part":"test","phrase":"10","condition":"guide","subject":"s6","trial_type":"audio-button-response","trial_index":136,"time_elapsed":221257,"internal_node_id":"0.0-1.0-0.67"},{"rt":2174.1049999999814,"stimulus":"audio/actual/s2-lecture-10_jean_saigne_beaucoup-7_cut1norm.mp3","button_pressed":"0","test_part":"test","phrase":"10","condition":"lecture","subject":"s2","trial_type":"audio-button-response","trial_index":138,"time_elapsed":223746,"internal_node_id":"0.0-1.0-0.68"},{"rt":1699.7799999999988,"stimulus":"audio/actual/s9-guide-10bis_jenseigne_beaucoup.mp3","button_pressed":"0","test_part":"test","phrase":"10bis","condition":"guide","subject":"s9","trial_type":"audio-button-response","trial_index":140,"time_elapsed":225728,"internal_node_id":"0.0-1.0-0.69"},{"rt":1981.3150000000023,"stimulus":"audio/actual/s5-imitation-10bis_jenseigne_beaucoup-11_cut1norm.mp3","button_pressed":"0","test_part":"test","phrase":"10bis","condition":"imitation","subject":"s5","trial_type":"audio-button-response","trial_index":142,"time_elapsed":227960,"internal_node_id":"0.0-1.0-0.70"},{"rt":2215.8850000000093,"stimulus":"audio/actual/s9-lecture-10_jean_saigne_beaucoup-3_cut1norm.mp3","button_pressed":"0","test_part":"test","phrase":"10","condition":"lecture","subject":"s9","trial_type":"audio-button-response","trial_index":144,"time_elapsed":230475,"internal_node_id":"0.0-1.0-0.71"},{"rt":1808.7449999999953,"stimulus":"audio/actual/s7-blind-10_jean_saigne_beaucoup.mp3","button_pressed":"1","test_part":"test","phrase":"10","condition":"blind","subject":"s7","trial_type":"audio-button-response","trial_index":146,"time_elapsed":232597,"internal_node_id":"0.0-1.0-0.72"},{"rt":2627.9349999999977,"stimulus":"audio/actual/s2-imitation-10_jean_saigne_beaucoup-4_cut1norm.mp3","button_pressed":"0","test_part":"test","phrase":"10","condition":"imitation","subject":"s2","trial_type":"audio-button-response","trial_index":148,"time_elapsed":235486,"internal_node_id":"0.0-1.0-0.73"},{"rt":1748.0249999999942,"stimulus":"audio/actual/s7-imitation-10_jean_saigne_beaucoup-3_cut1norm.mp3","button_pressed":"0","test_part":"test","phrase":"10","condition":"imitation","subject":"s7","trial_type":"audio-button-response","trial_index":150,"time_elapsed":237639,"internal_node_id":"0.0-1.0-0.74"},{"rt":1788.1199999999953,"stimulus":"audio/actual/s6-imitation-10_jean_saigne_beaucoup-5_cut1norm.mp3","button_pressed":"0","test_part":"test","phrase":"10","condition":"imitation","subject":"s6","trial_type":"audio-button-response","trial_index":152,"time_elapsed":239862,"internal_node_id":"0.0-1.0-0.75"},{"rt":2619.8150000000023,"stimulus":"audio/actual/s4-lecture-10_jean_saigne_beaucoup-1_cut1norm.mp3","button_pressed":"0","test_part":"test","phrase":"10","condition":"lecture","subject":"s4","trial_type":"audio-button-response","trial_index":154,"time_elapsed":242856,"internal_node_id":"0.0-1.0-0.76"},{"rt":2964.124999999942,"stimulus":"audio/actual/s6-blind-10_jean_saigne_beaucoup.mp3","button_pressed":"0","test_part":"test","phrase":"10","condition":"blind","subject":"s6","trial_type":"audio-button-response","trial_index":156,"time_elapsed":246315,"internal_node_id":"0.0-1.0-0.77"},{"rt":2213.984999999986,"stimulus":"audio/actual/s1-blind-10_jean_saigne_beaucoup.mp3","button_pressed":"1","test_part":"test","phrase":"10","condition":"blind","subject":"s1","trial_type":"audio-button-response","trial_index":158,"time_elapsed":248924,"internal_node_id":"0.0-1.0-0.78"},{"rt":1505.8850000000093,"stimulus":"audio/actual/s3-lecture-10bis_jenseigne_beaucoup-3_cut1norm.mp3","button_pressed":"1","test_part":"test","phrase":"10bis","condition":"lecture","subject":"s3","trial_type":"audio-button-response","trial_index":160,"time_elapsed":251016,"internal_node_id":"0.0-1.0-0.79"}]