[{"rt":4105.885000026319,"stimulus":"audio/actual/s1-imitation-10bis_jenseigne_beaucoup-10_cut1norm.mp3","button_pressed":"1","test_part":"test","phrase":"10bis","condition":"imitation","subject":"s1","trial_type":"audio-button-response","trial_index":1,"time_elapsed":26822,"internal_node_id":"0.0-1.0-0.0"},{"rt":4782.975000038277,"stimulus":"audio/actual/s6-blind-10_jean_saigne_beaucoup.mp3","button_pressed":"0","test_part":"test","phrase":"10","condition":"blind","subject":"s6","trial_type":"audio-button-response","trial_index":3,"time_elapsed":32863,"internal_node_id":"0.0-1.0-0.1"},{"rt":2061.9900000165217,"stimulus":"audio/actual/s8-lecture-10_jean_saigne_beaucoup-10_cut1norm.mp3","button_pressed":"0","test_part":"test","phrase":"10","condition":"lecture","subject":"s8","trial_type":"audio-button-response","trial_index":5,"time_elapsed":35724,"internal_node_id":"0.0-1.0-0.2"},{"rt":2678.2750000129454,"stimulus":"audio/actual/s10-lecture-10_jean_saigne_beaucoup-10_cut1norm.mp3","button_pressed":"0","test_part":"test","phrase":"10","condition":"lecture","subject":"s10","trial_type":"audio-button-response","trial_index":7,"time_elapsed":39032,"internal_node_id":"0.0-1.0-0.3"},{"rt":3932.2249999968335,"stimulus":"audio/actual/s8-blind-10_jean_saigne_beaucoup.mp3","button_pressed":"0","test_part":"test","phrase":"10","condition":"blind","subject":"s8","trial_type":"audio-button-response","trial_index":9,"time_elapsed":43542,"internal_node_id":"0.0-1.0-0.4"},{"rt":3797.2000000299886,"stimulus":"audio/actual/s3-blind-10bis_jenseigne_beaucoup.mp3","button_pressed":"1","test_part":"test","phrase":"10bis","condition":"blind","subject":"s3","trial_type":"audio-button-response","trial_index":11,"time_elapsed":47742,"internal_node_id":"0.0-1.0-0.5"},{"rt":2130.6599999661557,"stimulus":"audio/actual/s4-guide-10bis_jenseigne_beaucoup.mp3","button_pressed":"1","test_part":"test","phrase":"10bis","condition":"guide","subject":"s4","trial_type":"audio-button-response","trial_index":13,"time_elapsed":50372,"internal_node_id":"0.0-1.0-0.6"},{"rt":1605.4149999981746,"stimulus":"audio/actual/s5-imitation-10bis_jenseigne_beaucoup-11_cut1norm.mp3","button_pressed":"1","test_part":"test","phrase":"10bis","condition":"imitation","subject":"s5","trial_type":"audio-button-response","trial_index":15,"time_elapsed":52552,"internal_node_id":"0.0-1.0-0.7"},{"rt":2572.5100000272505,"stimulus":"audio/actual/s10-blind-10bis_jenseigne_beaucoup.mp3","button_pressed":"0","test_part":"test","phrase":"10bis","condition":"blind","subject":"s10","trial_type":"audio-button-response","trial_index":17,"time_elapsed":55867,"internal_node_id":"0.0-1.0-0.8"},{"rt":2900.6050000316463,"stimulus":"audio/actual/s7-guide-10bis_jenseigne_beaucoup.mp3","button_pressed":"0","test_part":"test","phrase":"10bis","condition":"guide","subject":"s7","trial_type":"audio-button-response","trial_index":19,"time_elapsed":59272,"internal_node_id":"0.0-1.0-0.9"},{"rt":2441.575000004377,"stimulus":"audio/actual/s4-blind-10bis_jenseigne_beaucoup.mp3","button_pressed":"0","test_part":"test","phrase":"10bis","condition":"blind","subject":"s4","trial_type":"audio-button-response","trial_index":21,"time_elapsed":62136,"internal_node_id":"0.0-1.0-0.10"},{"rt":2660.329999984242,"stimulus":"audio/actual/s1-blind-10bis_jenseigne_beaucoup.mp3","button_pressed":"0","test_part":"test","phrase":"10bis","condition":"blind","subject":"s1","trial_type":"audio-button-response","trial_index":23,"time_elapsed":65232,"internal_node_id":"0.0-1.0-0.11"},{"rt":2844.829999958165,"stimulus":"audio/actual/s4-lecture-10bis_jenseigne_beaucoup-0_cut1norm.mp3","button_pressed":"1","test_part":"test","phrase":"10bis","condition":"lecture","subject":"s4","trial_type":"audio-button-response","trial_index":25,"time_elapsed":68585,"internal_node_id":"0.0-1.0-0.12"},{"rt":3193.1949999998324,"stimulus":"audio/actual/s1-lecture-10_jean_saigne_beaucoup-2_cut1norm.mp3","button_pressed":"1","test_part":"test","phrase":"10","condition":"lecture","subject":"s1","trial_type":"audio-button-response","trial_index":27,"time_elapsed":72167,"internal_node_id":"0.0-1.0-0.13"},{"rt":3220.19000002183,"stimulus":"audio/actual/s6-imitation-10_jean_saigne_beaucoup-5_cut1norm.mp3","button_pressed":"0","test_part":"test","phrase":"10","condition":"imitation","subject":"s6","trial_type":"audio-button-response","trial_index":29,"time_elapsed":75802,"internal_node_id":"0.0-1.0-0.14"},{"rt":2523.140000004787,"stimulus":"audio/actual/s7-lecture-10_jean_saigne_beaucoup-8_cut1norm.mp3","button_pressed":"0","test_part":"test","phrase":"10","condition":"lecture","subject":"s7","trial_type":"audio-button-response","trial_index":31,"time_elapsed":78697,"internal_node_id":"0.0-1.0-0.15"},{"rt":3159.4049999839626,"stimulus":"audio/actual/s10-imitation-10_jean_saigne_beaucoup-11_cut1norm.mp3","button_pressed":"0","test_part":"test","phrase":"10","condition":"imitation","subject":"s10","trial_type":"audio-button-response","trial_index":33,"time_elapsed":82459,"internal_node_id":"0.0-1.0-0.16"},{"rt":2580.305000010412,"stimulus":"audio/actual/s5-guide-10bis_jenseigne_beaucoup.mp3","button_pressed":"1","test_part":"test","phrase":"10bis","condition":"guide","subject":"s5","trial_type":"audio-button-response","trial_index":35,"time_elapsed":85382,"internal_node_id":"0.0-1.0-0.17"},{"rt":3780.7400000165217,"stimulus":"audio/actual/s10-blind-10_jean_saigne_beaucoup.mp3","button_pressed":"0","test_part":"test","phrase":"10","condition":"blind","subject":"s10","trial_type":"audio-button-response","trial_index":37,"time_elapsed":89497,"internal_node_id":"0.0-1.0-0.18"},{"rt":6875.904999964405,"stimulus":"audio/actual/s6-blind-10bis_jenseigne_beaucoup.mp3","button_pressed":"0","test_part":"test","phrase":"10bis","condition":"blind","subject":"s6","trial_type":"audio-button-response","trial_index":39,"time_elapsed":96822,"internal_node_id":"0.0-1.0-0.19"},{"rt":2072.1599999815226,"stimulus":"audio/actual/s3-guide-10bis_jenseigne_beaucoup.mp3","button_pressed":"0","test_part":"test","phrase":"10bis","condition":"guide","subject":"s3","trial_type":"audio-button-response","trial_index":41,"time_elapsed":99346,"internal_node_id":"0.0-1.0-0.20"},{"rt":5790.225000004284,"stimulus":"audio/actual/s6-guide-10_jean_saigne_beaucoup.mp3","button_pressed":"0","test_part":"test","phrase":"10","condition":"guide","subject":"s6","trial_type":"audio-button-response","trial_index":43,"time_elapsed":105864,"internal_node_id":"0.0-1.0-0.21"},{"rt":4565.824999997858,"stimulus":"audio/actual/s9-guide-10bis_jenseigne_beaucoup.mp3","button_pressed":"1","test_part":"test","phrase":"10bis","condition":"guide","subject":"s9","trial_type":"audio-button-response","trial_index":45,"time_elapsed":110983,"internal_node_id":"0.0-1.0-0.22"},{"rt":2177.974999998696,"stimulus":"audio/actual/s4-lecture-10_jean_saigne_beaucoup-1_cut1norm.mp3","button_pressed":"0","test_part":"test","phrase":"10","condition":"lecture","subject":"s4","trial_type":"audio-button-response","trial_index":47,"time_elapsed":113536,"internal_node_id":"0.0-1.0-0.23"},{"rt":1955.149999994319,"stimulus":"audio/actual/s1-imitation-10_jean_saigne_beaucoup-11_cut1norm.mp3","button_pressed":"0","test_part":"test","phrase":"10","condition":"imitation","subject":"s1","trial_type":"audio-button-response","trial_index":49,"time_elapsed":116151,"internal_node_id":"0.0-1.0-0.24"},{"rt":1754.7250000061467,"stimulus":"audio/actual/s5-guide-10_jean_saigne_beaucoup.mp3","button_pressed":"0","test_part":"test","phrase":"10","condition":"guide","subject":"s5","trial_type":"audio-button-response","trial_index":51,"time_elapsed":118354,"internal_node_id":"0.0-1.0-0.25"},{"rt":2830.7200000272132,"stimulus":"audio/actual/s4-blind-10_jean_saigne_beaucoup.mp3","button_pressed":"1","test_part":"test","phrase":"10","condition":"blind","subject":"s4","trial_type":"audio-button-response","trial_index":53,"time_elapsed":121518,"internal_node_id":"0.0-1.0-0.26"},{"rt":1615.8699999796227,"stimulus":"audio/actual/s3-lecture-10bis_jenseigne_beaucoup-3_cut1norm.mp3","button_pressed":"1","test_part":"test","phrase":"10bis","condition":"lecture","subject":"s3","trial_type":"audio-button-response","trial_index":55,"time_elapsed":123611,"internal_node_id":"0.0-1.0-0.27"},{"rt":2157.3549999739043,"stimulus":"audio/actual/s9-blind-10_jean_saigne_beaucoup.mp3","button_pressed":"0","test_part":"test","phrase":"10","condition":"blind","subject":"s9","trial_type":"audio-button-response","trial_index":57,"time_elapsed":126274,"internal_node_id":"0.0-1.0-0.28"},{"rt":1483.4849999751896,"stimulus":"audio/actual/s5-blind-10_jean_saigne_beaucoup.mp3","button_pressed":"1","test_part":"test","phrase":"10","condition":"blind","subject":"s5","trial_type":"audio-button-response","trial_index":59,"time_elapsed":128003,"internal_node_id":"0.0-1.0-0.29"},{"rt":2587.9499999573454,"stimulus":"audio/actual/s9-guide-10_jean_saigne_beaucoup.mp3","button_pressed":"1","test_part":"test","phrase":"10","condition":"guide","subject":"s9","trial_type":"audio-button-response","trial_index":61,"time_elapsed":131126,"internal_node_id":"0.0-1.0-0.30"},{"rt":2095.774999994319,"stimulus":"audio/actual/s1-guide-10_jean_saigne_beaucoup.mp3","button_pressed":"0","test_part":"test","phrase":"10","condition":"guide","subject":"s1","trial_type":"audio-button-response","trial_index":63,"time_elapsed":133576,"internal_node_id":"0.0-1.0-0.31"},{"rt":1517.8650000016205,"stimulus":"audio/actual/s8-blind-10bis_jenseigne_beaucoup.mp3","button_pressed":"1","test_part":"test","phrase":"10bis","condition":"blind","subject":"s8","trial_type":"audio-button-response","trial_index":65,"time_elapsed":135402,"internal_node_id":"0.0-1.0-0.32"},{"rt":2028.885000036098,"stimulus":"audio/actual/s3-lecture-10_jean_saigne_beaucoup-2_cut1norm.mp3","button_pressed":"0","test_part":"test","phrase":"10","condition":"lecture","subject":"s3","trial_type":"audio-button-response","trial_index":67,"time_elapsed":137844,"internal_node_id":"0.0-1.0-0.33"},{"rt":2155.4550000000745,"stimulus":"audio/actual/s7-imitation-10_jean_saigne_beaucoup-3_cut1norm.mp3","button_pressed":"0","test_part":"test","phrase":"10","condition":"imitation","subject":"s7","trial_type":"audio-button-response","trial_index":69,"time_elapsed":140459,"internal_node_id":"0.0-1.0-0.34"},{"rt":1642.5750000053085,"stimulus":"audio/actual/s5-lecture-10bis_jenseigne_beaucoup-4_cut1norm.mp3","button_pressed":"1","test_part":"test","phrase":"10bis","condition":"lecture","subject":"s5","trial_type":"audio-button-response","trial_index":71,"time_elapsed":142538,"internal_node_id":"0.0-1.0-0.35"},{"rt":1848.409999976866,"stimulus":"audio/actual/s4-imitation-10_jean_saigne_beaucoup-1_cut1norm.mp3","button_pressed":"0","test_part":"test","phrase":"10","condition":"imitation","subject":"s4","trial_type":"audio-button-response","trial_index":73,"time_elapsed":144775,"internal_node_id":"0.0-1.0-0.36"},{"rt":1419.9700000463054,"stimulus":"audio/actual/s2-blind-10bis_jenseigne_beaucoup.mp3","button_pressed":"1","test_part":"test","phrase":"10bis","condition":"blind","subject":"s2","trial_type":"audio-button-response","trial_index":75,"time_elapsed":146430,"internal_node_id":"0.0-1.0-0.37"},{"rt":1575.9950000210665,"stimulus":"audio/actual/s7-blind-10_jean_saigne_beaucoup.mp3","button_pressed":"0","test_part":"test","phrase":"10","condition":"blind","subject":"s7","trial_type":"audio-button-response","trial_index":77,"time_elapsed":148262,"internal_node_id":"0.0-1.0-0.38"},{"rt":2778.890000015963,"stimulus":"audio/actual/s10-guide-10bis_jenseigne_beaucoup.mp3","button_pressed":"0","test_part":"test","phrase":"10bis","condition":"guide","subject":"s10","trial_type":"audio-button-response","trial_index":79,"time_elapsed":151337,"internal_node_id":"0.0-1.0-0.39"},{"rt":3677.7250000159256,"stimulus":"audio/actual/s4-guide-10_jean_saigne_beaucoup.mp3","button_pressed":"1","test_part":"test","phrase":"10","condition":"guide","subject":"s4","trial_type":"audio-button-response","trial_index":81,"time_elapsed":155480,"internal_node_id":"0.0-1.0-0.40"},{"rt":6205.5099999997765,"stimulus":"audio/actual/s1-blind-10_jean_saigne_beaucoup.mp3","button_pressed":"2","test_part":"test","phrase":"10","condition":"blind","subject":"s1","trial_type":"audio-button-response","trial_index":83,"time_elapsed":161882,"internal_node_id":"0.0-1.0-0.41"},{"rt":2000.0099999597296,"stimulus":"audio/actual/s1-blind-10_jean_saigne_beaucoup.mp3","button_pressed":"0","test_part":"test","phrase":"10","condition":"blind","subject":"s1","trial_type":"audio-button-response","trial_index":84,"time_elapsed":163884,"internal_node_id":"0.0-1.0-1.41-0.41"},{"rt":2113.4900000179186,"stimulus":"audio/actual/s2-guide-10bis_jenseigne_beaucoup.mp3","button_pressed":"1","test_part":"test","phrase":"10bis","condition":"guide","subject":"s2","trial_type":"audio-button-response","trial_index":86,"time_elapsed":166506,"internal_node_id":"0.0-1.0-0.42"},{"rt":2016.654999984894,"stimulus":"audio/actual/s6-lecture-10_jean_saigne_beaucoup-1_cut1norm.mp3","button_pressed":"0","test_part":"test","phrase":"10","condition":"lecture","subject":"s6","trial_type":"audio-button-response","trial_index":88,"time_elapsed":169661,"internal_node_id":"0.0-1.0-0.43"},{"rt":1695.7150000380352,"stimulus":"audio/actual/s2-lecture-10_jean_saigne_beaucoup-7_cut1norm.mp3","button_pressed":"0","test_part":"test","phrase":"10","condition":"lecture","subject":"s2","trial_type":"audio-button-response","trial_index":90,"time_elapsed":172311,"internal_node_id":"0.0-1.0-0.44"},{"rt":1746.579999977257,"stimulus":"audio/actual/s7-blind-10bis_jenseigne_beaucoup.mp3","button_pressed":"1","test_part":"test","phrase":"10bis","condition":"blind","subject":"s7","trial_type":"audio-button-response","trial_index":92,"time_elapsed":174691,"internal_node_id":"0.0-1.0-0.45"},{"rt":1678.5450000315905,"stimulus":"audio/actual/s8-lecture-10bis_jenseigne_beaucoup-11_cut1norm.mp3","button_pressed":"1","test_part":"test","phrase":"10bis","condition":"lecture","subject":"s8","trial_type":"audio-button-response","trial_index":94,"time_elapsed":177302,"internal_node_id":"0.0-1.0-0.46"},{"rt":1844.2400000058115,"stimulus":"audio/actual/s6-lecture-10bis_jenseigne_beaucoup-0_cut1norm.mp3","button_pressed":"1","test_part":"test","phrase":"10bis","condition":"lecture","subject":"s6","trial_type":"audio-button-response","trial_index":96,"time_elapsed":179963,"internal_node_id":"0.0-1.0-0.47"},{"rt":2247.8399999672547,"stimulus":"audio/actual/s1-guide-10bis_jenseigne_beaucoup.mp3","button_pressed":"0","test_part":"test","phrase":"10bis","condition":"guide","subject":"s1","trial_type":"audio-button-response","trial_index":98,"time_elapsed":182761,"internal_node_id":"0.0-1.0-0.48"},{"rt":2323.2950000092387,"stimulus":"audio/actual/s3-blind-10_jean_saigne_beaucoup.mp3","button_pressed":"0","test_part":"test","phrase":"10","condition":"blind","subject":"s3","trial_type":"audio-button-response","trial_index":100,"time_elapsed":185611,"internal_node_id":"0.0-1.0-0.49"},{"rt":1752.2500000195578,"stimulus":"audio/actual/s6-imitation-10bis_jenseigne_beaucoup-4_cut1norm.mp3","button_pressed":"1","test_part":"test","phrase":"10bis","condition":"imitation","subject":"s6","trial_type":"audio-button-response","trial_index":102,"time_elapsed":188031,"internal_node_id":"0.0-1.0-0.50"},{"rt":1472.040000022389,"stimulus":"audio/actual/s5-blind-10bis_jenseigne_beaucoup.mp3","button_pressed":"1","test_part":"test","phrase":"10bis","condition":"blind","subject":"s5","trial_type":"audio-button-response","trial_index":104,"time_elapsed":190029,"internal_node_id":"0.0-1.0-0.51"},{"rt":1926.6199999838136,"stimulus":"audio/actual/s7-lecture-10bis_jenseigne_beaucoup-9_cut1norm.mp3","button_pressed":"1","test_part":"test","phrase":"10bis","condition":"lecture","subject":"s7","trial_type":"audio-button-response","trial_index":106,"time_elapsed":192341,"internal_node_id":"0.0-1.0-0.52"},{"rt":2988.504999957513,"stimulus":"audio/actual/s8-guide-10_jean_saigne_beaucoup.mp3","button_pressed":"0","test_part":"test","phrase":"10","condition":"guide","subject":"s8","trial_type":"audio-button-response","trial_index":108,"time_elapsed":195961,"internal_node_id":"0.0-1.0-0.53"},{"rt":1760.8100000070408,"stimulus":"audio/actual/s10-imitation-10bis_jenseigne_beaucoup-10_cut1norm.mp3","button_pressed":"1","test_part":"test","phrase":"10bis","condition":"imitation","subject":"s10","trial_type":"audio-button-response","trial_index":110,"time_elapsed":198289,"internal_node_id":"0.0-1.0-0.54"},{"rt":1467.2100000316277,"stimulus":"audio/actual/s8-guide-10bis_jenseigne_beaucoup.mp3","button_pressed":"1","test_part":"test","phrase":"10bis","condition":"guide","subject":"s8","trial_type":"audio-button-response","trial_index":112,"time_elapsed":200231,"internal_node_id":"0.0-1.0-0.55"},{"rt":1782.2350000496954,"stimulus":"audio/actual/s10-lecture-10bis_jenseigne_beaucoup-11_cut1norm.mp3","button_pressed":"1","test_part":"test","phrase":"10bis","condition":"lecture","subject":"s10","trial_type":"audio-button-response","trial_index":114,"time_elapsed":202951,"internal_node_id":"0.0-1.0-0.56"},{"rt":1488.6050000204705,"stimulus":"audio/actual/s9-blind-10bis_jenseigne_beaucoup.mp3","button_pressed":"1","test_part":"test","phrase":"10bis","condition":"blind","subject":"s9","trial_type":"audio-button-response","trial_index":116,"time_elapsed":204881,"internal_node_id":"0.0-1.0-0.57"},{"rt":1626.1850000009872,"stimulus":"audio/actual/s2-imitation-10bis_jenseigne_beaucoup-5_cut1norm.mp3","button_pressed":"1","test_part":"test","phrase":"10bis","condition":"imitation","subject":"s2","trial_type":"audio-button-response","trial_index":118,"time_elapsed":206982,"internal_node_id":"0.0-1.0-0.58"},{"rt":1742.7249999600463,"stimulus":"audio/actual/s8-imitation-10_jean_saigne_beaucoup-10_cut1norm.mp3","button_pressed":"0","test_part":"test","phrase":"10","condition":"imitation","subject":"s8","trial_type":"audio-button-response","trial_index":120,"time_elapsed":209218,"internal_node_id":"0.0-1.0-0.59"},{"rt":1519.5149999926798,"stimulus":"audio/actual/s2-guide-10_jean_saigne_beaucoup.mp3","button_pressed":"0","test_part":"test","phrase":"10","condition":"guide","subject":"s2","trial_type":"audio-button-response","trial_index":122,"time_elapsed":211086,"internal_node_id":"0.0-1.0-0.60"},{"rt":2368.1749999523163,"stimulus":"audio/actual/s3-imitation-10bis_jenseigne_beaucoup-3_cut1norm.mp3","button_pressed":"0","test_part":"test","phrase":"10bis","condition":"imitation","subject":"s3","trial_type":"audio-button-response","trial_index":124,"time_elapsed":214022,"internal_node_id":"0.0-1.0-0.61"},{"rt":2232.229999965057,"stimulus":"audio/actual/s9-lecture-10_jean_saigne_beaucoup-3_cut1norm.mp3","button_pressed":"0","test_part":"test","phrase":"10","condition":"lecture","subject":"s9","trial_type":"audio-button-response","trial_index":126,"time_elapsed":216821,"internal_node_id":"0.0-1.0-0.62"},{"rt":1932.0899999584071,"stimulus":"audio/actual/s3-imitation-10_jean_saigne_beaucoup-2_cut1norm.mp3","button_pressed":"0","test_part":"test","phrase":"10","condition":"imitation","subject":"s3","trial_type":"audio-button-response","trial_index":128,"time_elapsed":219451,"internal_node_id":"0.0-1.0-0.63"},{"rt":1808.6100000073202,"stimulus":"audio/actual/s9-imitation-10_jean_saigne_beaucoup-4_cut1norm.mp3","button_pressed":"0","test_part":"test","phrase":"10","condition":"imitation","subject":"s9","trial_type":"audio-button-response","trial_index":130,"time_elapsed":221867,"internal_node_id":"0.0-1.0-0.64"},{"rt":1903.4349999856204,"stimulus":"audio/actual/s6-guide-10bis_jenseigne_beaucoup.mp3","button_pressed":"1","test_part":"test","phrase":"10bis","condition":"guide","subject":"s6","trial_type":"audio-button-response","trial_index":132,"time_elapsed":224331,"internal_node_id":"0.0-1.0-0.65"},{"rt":1509.0600000112318,"stimulus":"audio/actual/s7-imitation-10bis_jenseigne_beaucoup-2_cut1norm.mp3","button_pressed":"1","test_part":"test","phrase":"10bis","condition":"imitation","subject":"s7","trial_type":"audio-button-response","trial_index":134,"time_elapsed":226401,"internal_node_id":"0.0-1.0-0.66"},{"rt":1367.87000001641,"stimulus":"audio/actual/s4-imitation-10bis_jenseigne_beaucoup-0_cut1norm.mp3","button_pressed":"1","test_part":"test","phrase":"10bis","condition":"imitation","subject":"s4","trial_type":"audio-button-response","trial_index":136,"time_elapsed":228328,"internal_node_id":"0.0-1.0-0.67"},{"rt":1435.985000047367,"stimulus":"audio/actual/s8-imitation-10bis_jenseigne_beaucoup-11_cut1norm.mp3","button_pressed":"1","test_part":"test","phrase":"10bis","condition":"imitation","subject":"s8","trial_type":"audio-button-response","trial_index":138,"time_elapsed":230291,"internal_node_id":"0.0-1.0-0.68"},{"rt":1739.3300000112504,"stimulus":"audio/actual/s5-lecture-10_jean_saigne_beaucoup-5_cut1norm.mp3","button_pressed":"0","test_part":"test","phrase":"10","condition":"lecture","subject":"s5","trial_type":"audio-button-response","trial_index":140,"time_elapsed":232461,"internal_node_id":"0.0-1.0-0.69"},{"rt":1394.9150000116788,"stimulus":"audio/actual/s7-guide-10_jean_saigne_beaucoup.mp3","button_pressed":"0","test_part":"test","phrase":"10","condition":"guide","subject":"s7","trial_type":"audio-button-response","trial_index":142,"time_elapsed":234321,"internal_node_id":"0.0-1.0-0.70"},{"rt":2067.4800000269897,"stimulus":"audio/actual/s2-blind-10_jean_saigne_beaucoup.mp3","button_pressed":"1","test_part":"test","phrase":"10","condition":"blind","subject":"s2","trial_type":"audio-button-response","trial_index":144,"time_elapsed":236771,"internal_node_id":"0.0-1.0-0.71"},{"rt":1739.9949999526143,"stimulus":"audio/actual/s5-imitation-10_jean_saigne_beaucoup-10_cut1norm.mp3","button_pressed":"0","test_part":"test","phrase":"10","condition":"imitation","subject":"s5","trial_type":"audio-button-response","trial_index":146,"time_elapsed":239002,"internal_node_id":"0.0-1.0-0.72"},{"rt":1853.324999974575,"stimulus":"audio/actual/s2-lecture-10bis_jenseigne_beaucoup-6_cut1norm.mp3","button_pressed":"0","test_part":"test","phrase":"10bis","condition":"lecture","subject":"s2","trial_type":"audio-button-response","trial_index":148,"time_elapsed":241334,"internal_node_id":"0.0-1.0-0.73"},{"rt":28279.579999973066,"stimulus":"audio/actual/s10-guide-10_jean_saigne_beaucoup.mp3","button_pressed":"2","test_part":"test","phrase":"10","condition":"guide","subject":"s10","trial_type":"audio-button-response","trial_index":150,"time_elapsed":270104,"internal_node_id":"0.0-1.0-0.74"},{"rt":1605.1549999974668,"stimulus":"audio/actual/s10-guide-10_jean_saigne_beaucoup.mp3","button_pressed":"0","test_part":"test","phrase":"10","condition":"guide","subject":"s10","trial_type":"audio-button-response","trial_index":151,"time_elapsed":271711,"internal_node_id":"0.0-1.0-1.74-0.74"},{"rt":1925.0499999616295,"stimulus":"audio/actual/s3-guide-10_jean_saigne_beaucoup.mp3","button_pressed":"0","test_part":"test","phrase":"10","condition":"guide","subject":"s3","trial_type":"audio-button-response","trial_index":153,"time_elapsed":274261,"internal_node_id":"0.0-1.0-0.75"},{"rt":1801.6050000442192,"stimulus":"audio/actual/s9-lecture-10bis_jenseigne_beaucoup-2_cut1norm.mp3","button_pressed":"1","test_part":"test","phrase":"10bis","condition":"lecture","subject":"s9","trial_type":"audio-button-response","trial_index":155,"time_elapsed":276492,"internal_node_id":"0.0-1.0-0.76"},{"rt":1827.9399999883026,"stimulus":"audio/actual/s2-imitation-10_jean_saigne_beaucoup-4_cut1norm.mp3","button_pressed":"0","test_part":"test","phrase":"10","condition":"imitation","subject":"s2","trial_type":"audio-button-response","trial_index":157,"time_elapsed":278801,"internal_node_id":"0.0-1.0-0.77"},{"rt":1594.1900000325404,"stimulus":"audio/actual/s9-imitation-10bis_jenseigne_beaucoup-5_cut1norm.mp3","button_pressed":"1","test_part":"test","phrase":"10bis","condition":"imitation","subject":"s9","trial_type":"audio-button-response","trial_index":159,"time_elapsed":280821,"internal_node_id":"0.0-1.0-0.78"},{"rt":2271.7699999921024,"stimulus":"audio/actual/s1-lecture-10bis_jenseigne_beaucoup-3_cut1norm.mp3","button_pressed":"1","test_part":"test","phrase":"10bis","condition":"lecture","subject":"s1","trial_type":"audio-button-response","trial_index":161,"time_elapsed":283251,"internal_node_id":"0.0-1.0-0.79"}]