[{"rt":8525.76500000032,"stimulus":"audio/actual/s8-lecture-10_jean_saigne_beaucoup-10_cut1norm.mp3","button_pressed":"2","test_part":"test","phrase":"10","condition":"lecture","subject":"s8","trial_type":"audio-button-response","trial_index":1,"time_elapsed":17819,"internal_node_id":"0.0-1.0-0.0"},{"rt":2502.809999999954,"stimulus":"audio/actual/s8-lecture-10_jean_saigne_beaucoup-10_cut1norm.mp3","button_pressed":"0","test_part":"test","phrase":"10","condition":"lecture","subject":"s8","trial_type":"audio-button-response","trial_index":2,"time_elapsed":20325,"internal_node_id":"0.0-1.0-1.0-0.0"},{"rt":3390.5649999996967,"stimulus":"audio/actual/s1-blind-10bis_jenseigne_beaucoup.mp3","button_pressed":"1","test_part":"test","phrase":"10bis","condition":"blind","subject":"s1","trial_type":"audio-button-response","trial_index":4,"time_elapsed":25783,"internal_node_id":"0.0-1.0-0.1"},{"rt":1989.884999999049,"stimulus":"audio/actual/s8-blind-10_jean_saigne_beaucoup.mp3","button_pressed":"1","test_part":"test","phrase":"10","condition":"blind","subject":"s8","trial_type":"audio-button-response","trial_index":6,"time_elapsed":29638,"internal_node_id":"0.0-1.0-0.2"},{"rt":3208.020000000033,"stimulus":"audio/actual/s4-blind-10_jean_saigne_beaucoup.mp3","button_pressed":"1","test_part":"test","phrase":"10","condition":"blind","subject":"s4","trial_type":"audio-button-response","trial_index":8,"time_elapsed":33633,"internal_node_id":"0.0-1.0-0.3"},{"rt":4987.890000000334,"stimulus":"audio/actual/s10-imitation-10bis_jenseigne_beaucoup-10_cut1norm.mp3","button_pressed":"1","test_part":"test","phrase":"10bis","condition":"imitation","subject":"s10","trial_type":"audio-button-response","trial_index":10,"time_elapsed":39554,"internal_node_id":"0.0-1.0-0.4"},{"rt":4299.460000000181,"stimulus":"audio/actual/s6-lecture-10bis_jenseigne_beaucoup-0_cut1norm.mp3","button_pressed":"1","test_part":"test","phrase":"10bis","condition":"lecture","subject":"s6","trial_type":"audio-button-response","trial_index":12,"time_elapsed":45005,"internal_node_id":"0.0-1.0-0.5"},{"rt":3172.435000000405,"stimulus":"audio/actual/s10-lecture-10bis_jenseigne_beaucoup-11_cut1norm.mp3","button_pressed":"0","test_part":"test","phrase":"10bis","condition":"lecture","subject":"s10","trial_type":"audio-button-response","trial_index":14,"time_elapsed":48700,"internal_node_id":"0.0-1.0-0.6"},{"rt":2838.6549999995623,"stimulus":"audio/actual/s6-lecture-10_jean_saigne_beaucoup-1_cut1norm.mp3","button_pressed":"0","test_part":"test","phrase":"10","condition":"lecture","subject":"s6","trial_type":"audio-button-response","trial_index":16,"time_elapsed":52171,"internal_node_id":"0.0-1.0-0.7"},{"rt":5568.804999998974,"stimulus":"audio/actual/s4-lecture-10bis_jenseigne_beaucoup-0_cut1norm.mp3","button_pressed":"1","test_part":"test","phrase":"10bis","condition":"lecture","subject":"s4","trial_type":"audio-button-response","trial_index":18,"time_elapsed":58683,"internal_node_id":"0.0-1.0-0.8"},{"rt":3220.100000000457,"stimulus":"audio/actual/s1-lecture-10_jean_saigne_beaucoup-2_cut1norm.mp3","button_pressed":"0","test_part":"test","phrase":"10","condition":"lecture","subject":"s1","trial_type":"audio-button-response","trial_index":20,"time_elapsed":62725,"internal_node_id":"0.0-1.0-0.9"},{"rt":3515.2449999986857,"stimulus":"audio/actual/s4-guide-10bis_jenseigne_beaucoup.mp3","button_pressed":"0","test_part":"test","phrase":"10bis","condition":"guide","subject":"s4","trial_type":"audio-button-response","trial_index":22,"time_elapsed":66867,"internal_node_id":"0.0-1.0-0.10"},{"rt":2540.870000000723,"stimulus":"audio/actual/s1-imitation-10bis_jenseigne_beaucoup-10_cut1norm.mp3","button_pressed":"1","test_part":"test","phrase":"10bis","condition":"imitation","subject":"s1","trial_type":"audio-button-response","trial_index":24,"time_elapsed":70258,"internal_node_id":"0.0-1.0-0.11"},{"rt":3750.3450000003795,"stimulus":"audio/actual/s7-imitation-10bis_jenseigne_beaucoup-2_cut1norm.mp3","button_pressed":"0","test_part":"test","phrase":"10bis","condition":"imitation","subject":"s7","trial_type":"audio-button-response","trial_index":26,"time_elapsed":74376,"internal_node_id":"0.0-1.0-0.12"},{"rt":4032.0649999994203,"stimulus":"audio/actual/s1-imitation-10_jean_saigne_beaucoup-11_cut1norm.mp3","button_pressed":"0","test_part":"test","phrase":"10","condition":"imitation","subject":"s1","trial_type":"audio-button-response","trial_index":28,"time_elapsed":79390,"internal_node_id":"0.0-1.0-0.13"},{"rt":2812.2999999995955,"stimulus":"audio/actual/s3-lecture-10_jean_saigne_beaucoup-2_cut1norm.mp3","button_pressed":"0","test_part":"test","phrase":"10","condition":"lecture","subject":"s3","trial_type":"audio-button-response","trial_index":30,"time_elapsed":82649,"internal_node_id":"0.0-1.0-0.14"},{"rt":4664.954999998372,"stimulus":"audio/actual/s5-imitation-10bis_jenseigne_beaucoup-11_cut1norm.mp3","button_pressed":"0","test_part":"test","phrase":"10bis","condition":"imitation","subject":"s5","trial_type":"audio-button-response","trial_index":32,"time_elapsed":87702,"internal_node_id":"0.0-1.0-0.15"},{"rt":4506.634999999733,"stimulus":"audio/actual/s1-guide-10_jean_saigne_beaucoup.mp3","button_pressed":"0","test_part":"test","phrase":"10","condition":"guide","subject":"s1","trial_type":"audio-button-response","trial_index":34,"time_elapsed":92532,"internal_node_id":"0.0-1.0-0.16"},{"rt":2171.1799999993673,"stimulus":"audio/actual/s7-lecture-10_jean_saigne_beaucoup-8_cut1norm.mp3","button_pressed":"0","test_part":"test","phrase":"10","condition":"lecture","subject":"s7","trial_type":"audio-button-response","trial_index":36,"time_elapsed":95224,"internal_node_id":"0.0-1.0-0.17"},{"rt":2720.8649999993213,"stimulus":"audio/actual/s8-blind-10bis_jenseigne_beaucoup.mp3","button_pressed":"1","test_part":"test","phrase":"10bis","condition":"blind","subject":"s8","trial_type":"audio-button-response","trial_index":38,"time_elapsed":98501,"internal_node_id":"0.0-1.0-0.18"},{"rt":2548.5550000012154,"stimulus":"audio/actual/s9-imitation-10_jean_saigne_beaucoup-4_cut1norm.mp3","button_pressed":"0","test_part":"test","phrase":"10","condition":"imitation","subject":"s9","trial_type":"audio-button-response","trial_index":40,"time_elapsed":101443,"internal_node_id":"0.0-1.0-0.19"},{"rt":3868.720000000394,"stimulus":"audio/actual/s3-blind-10bis_jenseigne_beaucoup.mp3","button_pressed":"1","test_part":"test","phrase":"10bis","condition":"blind","subject":"s3","trial_type":"audio-button-response","trial_index":42,"time_elapsed":105765,"internal_node_id":"0.0-1.0-0.20"},{"rt":3503.6349999991216,"stimulus":"audio/actual/s5-blind-10_jean_saigne_beaucoup.mp3","button_pressed":"0","test_part":"test","phrase":"10","condition":"blind","subject":"s5","trial_type":"audio-button-response","trial_index":44,"time_elapsed":110031,"internal_node_id":"0.0-1.0-0.21"},{"rt":5309.769999999844,"stimulus":"audio/actual/s2-imitation-10bis_jenseigne_beaucoup-5_cut1norm.mp3","button_pressed":"2","test_part":"test","phrase":"10bis","condition":"imitation","subject":"s2","trial_type":"audio-button-response","trial_index":46,"time_elapsed":115644,"internal_node_id":"0.0-1.0-0.22"},{"rt":3178.0350000008184,"stimulus":"audio/actual/s2-imitation-10bis_jenseigne_beaucoup-5_cut1norm.mp3","button_pressed":"1","test_part":"test","phrase":"10bis","condition":"imitation","subject":"s2","trial_type":"audio-button-response","trial_index":47,"time_elapsed":118825,"internal_node_id":"0.0-1.0-1.22-0.22"},{"rt":5313.700000000623,"stimulus":"audio/actual/s3-imitation-10_jean_saigne_beaucoup-2_cut1norm.mp3","button_pressed":"0","test_part":"test","phrase":"10","condition":"imitation","subject":"s3","trial_type":"audio-button-response","trial_index":49,"time_elapsed":124504,"internal_node_id":"0.0-1.0-0.23"},{"rt":3574.929999998858,"stimulus":"audio/actual/s10-guide-10_jean_saigne_beaucoup.mp3","button_pressed":"0","test_part":"test","phrase":"10","condition":"guide","subject":"s10","trial_type":"audio-button-response","trial_index":51,"time_elapsed":128718,"internal_node_id":"0.0-1.0-0.24"},{"rt":4461.534999998577,"stimulus":"audio/actual/s7-lecture-10bis_jenseigne_beaucoup-9_cut1norm.mp3","button_pressed":"0","test_part":"test","phrase":"10bis","condition":"lecture","subject":"s7","trial_type":"audio-button-response","trial_index":53,"time_elapsed":133781,"internal_node_id":"0.0-1.0-0.25"},{"rt":2907.3450000014273,"stimulus":"audio/actual/s1-guide-10bis_jenseigne_beaucoup.mp3","button_pressed":"1","test_part":"test","phrase":"10bis","condition":"guide","subject":"s1","trial_type":"audio-button-response","trial_index":55,"time_elapsed":137138,"internal_node_id":"0.0-1.0-0.26"},{"rt":2675.2450000003446,"stimulus":"audio/actual/s2-imitation-10_jean_saigne_beaucoup-4_cut1norm.mp3","button_pressed":"0","test_part":"test","phrase":"10","condition":"imitation","subject":"s2","trial_type":"audio-button-response","trial_index":57,"time_elapsed":140296,"internal_node_id":"0.0-1.0-0.27"},{"rt":5172.480000001087,"stimulus":"audio/actual/s4-guide-10_jean_saigne_beaucoup.mp3","button_pressed":"2","test_part":"test","phrase":"10","condition":"guide","subject":"s4","trial_type":"audio-button-response","trial_index":59,"time_elapsed":145810,"internal_node_id":"0.0-1.0-0.28"},{"rt":2653.2100000004284,"stimulus":"audio/actual/s4-guide-10_jean_saigne_beaucoup.mp3","button_pressed":"1","test_part":"test","phrase":"10","condition":"guide","subject":"s4","trial_type":"audio-button-response","trial_index":60,"time_elapsed":148467,"internal_node_id":"0.0-1.0-1.28-0.28"},{"rt":3821.89500000095,"stimulus":"audio/actual/s8-guide-10bis_jenseigne_beaucoup.mp3","button_pressed":"1","test_part":"test","phrase":"10bis","condition":"guide","subject":"s8","trial_type":"audio-button-response","trial_index":62,"time_elapsed":152774,"internal_node_id":"0.0-1.0-0.29"},{"rt":5213.970000000729,"stimulus":"audio/actual/s6-blind-10bis_jenseigne_beaucoup.mp3","button_pressed":"0","test_part":"test","phrase":"10bis","condition":"blind","subject":"s6","trial_type":"audio-button-response","trial_index":64,"time_elapsed":158824,"internal_node_id":"0.0-1.0-0.30"},{"rt":3690.1300000008487,"stimulus":"audio/actual/s8-guide-10_jean_saigne_beaucoup.mp3","button_pressed":"0","test_part":"test","phrase":"10","condition":"guide","subject":"s8","trial_type":"audio-button-response","trial_index":66,"time_elapsed":163351,"internal_node_id":"0.0-1.0-0.31"},{"rt":2670.5499999989406,"stimulus":"audio/actual/s7-guide-10bis_jenseigne_beaucoup.mp3","button_pressed":"1","test_part":"test","phrase":"10bis","condition":"guide","subject":"s7","trial_type":"audio-button-response","trial_index":68,"time_elapsed":166143,"internal_node_id":"0.0-1.0-0.32"},{"rt":4821.464999999065,"stimulus":"audio/actual/s5-guide-10_jean_saigne_beaucoup.mp3","button_pressed":"2","test_part":"test","phrase":"10","condition":"guide","subject":"s5","trial_type":"audio-button-response","trial_index":70,"time_elapsed":171397,"internal_node_id":"0.0-1.0-0.33"},{"rt":3120.249999999942,"stimulus":"audio/actual/s5-guide-10_jean_saigne_beaucoup.mp3","button_pressed":"0","test_part":"test","phrase":"10","condition":"guide","subject":"s5","trial_type":"audio-button-response","trial_index":71,"time_elapsed":174520,"internal_node_id":"0.0-1.0-1.33-0.33"},{"rt":9091.155000000057,"stimulus":"audio/actual/s9-imitation-10bis_jenseigne_beaucoup-5_cut1norm.mp3","button_pressed":"2","test_part":"test","phrase":"10bis","condition":"imitation","subject":"s9","trial_type":"audio-button-response","trial_index":73,"time_elapsed":183952,"internal_node_id":"0.0-1.0-0.34"},{"rt":2305.425000000483,"stimulus":"audio/actual/s9-imitation-10bis_jenseigne_beaucoup-5_cut1norm.mp3","button_pressed":"1","test_part":"test","phrase":"10bis","condition":"imitation","subject":"s9","trial_type":"audio-button-response","trial_index":74,"time_elapsed":186259,"internal_node_id":"0.0-1.0-1.34-0.34"},{"rt":2773.8499999995693,"stimulus":"audio/actual/s6-imitation-10_jean_saigne_beaucoup-5_cut1norm.mp3","button_pressed":"0","test_part":"test","phrase":"10","condition":"imitation","subject":"s6","trial_type":"audio-button-response","trial_index":76,"time_elapsed":189490,"internal_node_id":"0.0-1.0-0.35"},{"rt":3203.88499999902,"stimulus":"audio/actual/s5-lecture-10_jean_saigne_beaucoup-5_cut1norm.mp3","button_pressed":"0","test_part":"test","phrase":"10","condition":"lecture","subject":"s5","trial_type":"audio-button-response","trial_index":78,"time_elapsed":193290,"internal_node_id":"0.0-1.0-0.36"},{"rt":6506.13499999966,"stimulus":"audio/actual/s2-blind-10bis_jenseigne_beaucoup.mp3","button_pressed":"0","test_part":"test","phrase":"10bis","condition":"blind","subject":"s2","trial_type":"audio-button-response","trial_index":80,"time_elapsed":200163,"internal_node_id":"0.0-1.0-0.37"},{"rt":2393.8350000007486,"stimulus":"audio/actual/s7-blind-10bis_jenseigne_beaucoup.mp3","button_pressed":"1","test_part":"test","phrase":"10bis","condition":"blind","subject":"s7","trial_type":"audio-button-response","trial_index":82,"time_elapsed":202763,"internal_node_id":"0.0-1.0-0.38"},{"rt":4952.019999998825,"stimulus":"audio/actual/s2-lecture-10bis_jenseigne_beaucoup-6_cut1norm.mp3","button_pressed":"1","test_part":"test","phrase":"10bis","condition":"lecture","subject":"s2","trial_type":"audio-button-response","trial_index":84,"time_elapsed":208969,"internal_node_id":"0.0-1.0-0.39"},{"rt":2547.6999999991967,"stimulus":"audio/actual/s7-imitation-10_jean_saigne_beaucoup-3_cut1norm.mp3","button_pressed":"0","test_part":"test","phrase":"10","condition":"imitation","subject":"s7","trial_type":"audio-button-response","trial_index":86,"time_elapsed":212733,"internal_node_id":"0.0-1.0-0.40"},{"rt":6515.575000001263,"stimulus":"audio/actual/s2-lecture-10_jean_saigne_beaucoup-7_cut1norm.mp3","button_pressed":"0","test_part":"test","phrase":"10","condition":"lecture","subject":"s2","trial_type":"audio-button-response","trial_index":88,"time_elapsed":219827,"internal_node_id":"0.0-1.0-0.41"},{"rt":4662.350000000501,"stimulus":"audio/actual/s9-blind-10_jean_saigne_beaucoup.mp3","button_pressed":"1","test_part":"test","phrase":"10","condition":"blind","subject":"s9","trial_type":"audio-button-response","trial_index":90,"time_elapsed":225037,"internal_node_id":"0.0-1.0-0.42"},{"rt":4974.814999999595,"stimulus":"audio/actual/s2-guide-10_jean_saigne_beaucoup.mp3","button_pressed":"2","test_part":"test","phrase":"10","condition":"guide","subject":"s2","trial_type":"audio-button-response","trial_index":92,"time_elapsed":230443,"internal_node_id":"0.0-1.0-0.43"},{"rt":1651.4900000001944,"stimulus":"audio/actual/s2-guide-10_jean_saigne_beaucoup.mp3","button_pressed":"0","test_part":"test","phrase":"10","condition":"guide","subject":"s2","trial_type":"audio-button-response","trial_index":93,"time_elapsed":232098,"internal_node_id":"0.0-1.0-1.43-0.43"},{"rt":3427.990000000136,"stimulus":"audio/actual/s9-guide-10_jean_saigne_beaucoup.mp3","button_pressed":"0","test_part":"test","phrase":"10","condition":"guide","subject":"s9","trial_type":"audio-button-response","trial_index":95,"time_elapsed":235925,"internal_node_id":"0.0-1.0-0.44"},{"rt":4500.504999999976,"stimulus":"audio/actual/s2-guide-10bis_jenseigne_beaucoup.mp3","button_pressed":"0","test_part":"test","phrase":"10bis","condition":"guide","subject":"s2","trial_type":"audio-button-response","trial_index":97,"time_elapsed":241884,"internal_node_id":"0.0-1.0-0.45"},{"rt":2783.7899999995134,"stimulus":"audio/actual/s3-imitation-10bis_jenseigne_beaucoup-3_cut1norm.mp3","button_pressed":"1","test_part":"test","phrase":"10bis","condition":"imitation","subject":"s3","trial_type":"audio-button-response","trial_index":99,"time_elapsed":245129,"internal_node_id":"0.0-1.0-0.46"},{"rt":3750.049999998708,"stimulus":"audio/actual/s2-blind-10_jean_saigne_beaucoup.mp3","button_pressed":"1","test_part":"test","phrase":"10","condition":"blind","subject":"s2","trial_type":"audio-button-response","trial_index":101,"time_elapsed":249231,"internal_node_id":"0.0-1.0-0.47"},{"rt":2839.359999999957,"stimulus":"audio/actual/s1-lecture-10bis_jenseigne_beaucoup-3_cut1norm.mp3","button_pressed":"1","test_part":"test","phrase":"10bis","condition":"lecture","subject":"s1","trial_type":"audio-button-response","trial_index":103,"time_elapsed":252478,"internal_node_id":"0.0-1.0-0.48"},{"rt":3131.175000000454,"stimulus":"audio/actual/s10-imitation-10_jean_saigne_beaucoup-11_cut1norm.mp3","button_pressed":"0","test_part":"test","phrase":"10","condition":"imitation","subject":"s10","trial_type":"audio-button-response","trial_index":105,"time_elapsed":256088,"internal_node_id":"0.0-1.0-0.49"},{"rt":1963.714999999851,"stimulus":"audio/actual/s7-guide-10_jean_saigne_beaucoup.mp3","button_pressed":"0","test_part":"test","phrase":"10","condition":"guide","subject":"s7","trial_type":"audio-button-response","trial_index":107,"time_elapsed":258532,"internal_node_id":"0.0-1.0-0.50"},{"rt":2244.989999999234,"stimulus":"audio/actual/s8-lecture-10bis_jenseigne_beaucoup-11_cut1norm.mp3","button_pressed":"1","test_part":"test","phrase":"10bis","condition":"lecture","subject":"s8","trial_type":"audio-button-response","trial_index":109,"time_elapsed":261196,"internal_node_id":"0.0-1.0-0.51"},{"rt":3973.9750000007916,"stimulus":"audio/actual/s6-guide-10bis_jenseigne_beaucoup.mp3","button_pressed":"1","test_part":"test","phrase":"10bis","condition":"guide","subject":"s6","trial_type":"audio-button-response","trial_index":111,"time_elapsed":265554,"internal_node_id":"0.0-1.0-0.52"},{"rt":1961.7950000010896,"stimulus":"audio/actual/s9-blind-10bis_jenseigne_beaucoup.mp3","button_pressed":"1","test_part":"test","phrase":"10bis","condition":"blind","subject":"s9","trial_type":"audio-button-response","trial_index":113,"time_elapsed":268095,"internal_node_id":"0.0-1.0-0.53"},{"rt":2224.019999999611,"stimulus":"audio/actual/s5-blind-10bis_jenseigne_beaucoup.mp3","button_pressed":"1","test_part":"test","phrase":"10bis","condition":"blind","subject":"s5","trial_type":"audio-button-response","trial_index":115,"time_elapsed":270590,"internal_node_id":"0.0-1.0-0.54"},{"rt":2617.7849999985774,"stimulus":"audio/actual/s3-guide-10bis_jenseigne_beaucoup.mp3","button_pressed":"1","test_part":"test","phrase":"10bis","condition":"guide","subject":"s3","trial_type":"audio-button-response","trial_index":117,"time_elapsed":273541,"internal_node_id":"0.0-1.0-0.55"},{"rt":1952.835000000021,"stimulus":"audio/actual/s5-imitation-10_jean_saigne_beaucoup-10_cut1norm.mp3","button_pressed":"0","test_part":"test","phrase":"10","condition":"imitation","subject":"s5","trial_type":"audio-button-response","trial_index":119,"time_elapsed":275901,"internal_node_id":"0.0-1.0-0.56"},{"rt":2618.64999999851,"stimulus":"audio/actual/s8-imitation-10_jean_saigne_beaucoup-10_cut1norm.mp3","button_pressed":"0","test_part":"test","phrase":"10","condition":"imitation","subject":"s8","trial_type":"audio-button-response","trial_index":121,"time_elapsed":278995,"internal_node_id":"0.0-1.0-0.57"},{"rt":1887.420000000915,"stimulus":"audio/actual/s5-lecture-10bis_jenseigne_beaucoup-4_cut1norm.mp3","button_pressed":"0","test_part":"test","phrase":"10bis","condition":"lecture","subject":"s5","trial_type":"audio-button-response","trial_index":123,"time_elapsed":281326,"internal_node_id":"0.0-1.0-0.58"},{"rt":2328.3950000004843,"stimulus":"audio/actual/s4-lecture-10_jean_saigne_beaucoup-1_cut1norm.mp3","button_pressed":"0","test_part":"test","phrase":"10","condition":"lecture","subject":"s4","trial_type":"audio-button-response","trial_index":125,"time_elapsed":284012,"internal_node_id":"0.0-1.0-0.59"},{"rt":2420.395000001008,"stimulus":"audio/actual/s3-lecture-10bis_jenseigne_beaucoup-3_cut1norm.mp3","button_pressed":"0","test_part":"test","phrase":"10bis","condition":"lecture","subject":"s3","trial_type":"audio-button-response","trial_index":127,"time_elapsed":286874,"internal_node_id":"0.0-1.0-0.60"},{"rt":3909.854999999923,"stimulus":"audio/actual/s10-lecture-10_jean_saigne_beaucoup-10_cut1norm.mp3","button_pressed":"1","test_part":"test","phrase":"10","condition":"lecture","subject":"s10","trial_type":"audio-button-response","trial_index":129,"time_elapsed":291409,"internal_node_id":"0.0-1.0-0.61"},{"rt":2142.374999999476,"stimulus":"audio/actual/s8-imitation-10bis_jenseigne_beaucoup-11_cut1norm.mp3","button_pressed":"1","test_part":"test","phrase":"10bis","condition":"imitation","subject":"s8","trial_type":"audio-button-response","trial_index":131,"time_elapsed":294144,"internal_node_id":"0.0-1.0-0.62"},{"rt":2468.7149999990943,"stimulus":"audio/actual/s9-guide-10bis_jenseigne_beaucoup.mp3","button_pressed":"1","test_part":"test","phrase":"10bis","condition":"guide","subject":"s9","trial_type":"audio-button-response","trial_index":133,"time_elapsed":296856,"internal_node_id":"0.0-1.0-0.63"},{"rt":2314.4799999991083,"stimulus":"audio/actual/s4-imitation-10bis_jenseigne_beaucoup-0_cut1norm.mp3","button_pressed":"0","test_part":"test","phrase":"10bis","condition":"imitation","subject":"s4","trial_type":"audio-button-response","trial_index":135,"time_elapsed":299757,"internal_node_id":"0.0-1.0-0.64"},{"rt":5316.299999998591,"stimulus":"audio/actual/s6-blind-10_jean_saigne_beaucoup.mp3","button_pressed":"2","test_part":"test","phrase":"10","condition":"blind","subject":"s6","trial_type":"audio-button-response","trial_index":137,"time_elapsed":305948,"internal_node_id":"0.0-1.0-0.65"},{"rt":3134.8649999999907,"stimulus":"audio/actual/s6-blind-10_jean_saigne_beaucoup.mp3","button_pressed":"0","test_part":"test","phrase":"10","condition":"blind","subject":"s6","trial_type":"audio-button-response","trial_index":138,"time_elapsed":309086,"internal_node_id":"0.0-1.0-1.65-0.65"},{"rt":3130.4700000000885,"stimulus":"audio/actual/s4-imitation-10_jean_saigne_beaucoup-1_cut1norm.mp3","button_pressed":"0","test_part":"test","phrase":"10","condition":"imitation","subject":"s4","trial_type":"audio-button-response","trial_index":140,"time_elapsed":312607,"internal_node_id":"0.0-1.0-0.66"},{"rt":2391.8999999986845,"stimulus":"audio/actual/s6-imitation-10bis_jenseigne_beaucoup-4_cut1norm.mp3","button_pressed":"1","test_part":"test","phrase":"10bis","condition":"imitation","subject":"s6","trial_type":"audio-button-response","trial_index":142,"time_elapsed":315408,"internal_node_id":"0.0-1.0-0.67"},{"rt":1707.3049999998766,"stimulus":"audio/actual/s9-lecture-10bis_jenseigne_beaucoup-2_cut1norm.mp3","button_pressed":"1","test_part":"test","phrase":"10bis","condition":"lecture","subject":"s9","trial_type":"audio-button-response","trial_index":144,"time_elapsed":317425,"internal_node_id":"0.0-1.0-0.68"},{"rt":1808.0950000003213,"stimulus":"audio/actual/s5-guide-10bis_jenseigne_beaucoup.mp3","button_pressed":"1","test_part":"test","phrase":"10bis","condition":"guide","subject":"s5","trial_type":"audio-button-response","trial_index":146,"time_elapsed":319507,"internal_node_id":"0.0-1.0-0.69"},{"rt":2174.0800000006566,"stimulus":"audio/actual/s9-lecture-10_jean_saigne_beaucoup-3_cut1norm.mp3","button_pressed":"0","test_part":"test","phrase":"10","condition":"lecture","subject":"s9","trial_type":"audio-button-response","trial_index":148,"time_elapsed":321967,"internal_node_id":"0.0-1.0-0.70"},{"rt":4872.330000000133,"stimulus":"audio/actual/s10-guide-10bis_jenseigne_beaucoup.mp3","button_pressed":"0","test_part":"test","phrase":"10bis","condition":"guide","subject":"s10","trial_type":"audio-button-response","trial_index":150,"time_elapsed":327210,"internal_node_id":"0.0-1.0-0.71"},{"rt":4842.19499999925,"stimulus":"audio/actual/s6-guide-10_jean_saigne_beaucoup.mp3","button_pressed":"2","test_part":"test","phrase":"10","condition":"guide","subject":"s6","trial_type":"audio-button-response","trial_index":152,"time_elapsed":332486,"internal_node_id":"0.0-1.0-0.72"},{"rt":3723.4499999994878,"stimulus":"audio/actual/s6-guide-10_jean_saigne_beaucoup.mp3","button_pressed":"1","test_part":"test","phrase":"10","condition":"guide","subject":"s6","trial_type":"audio-button-response","trial_index":153,"time_elapsed":336214,"internal_node_id":"0.0-1.0-1.72-0.72"},{"rt":5800.90000000014,"stimulus":"audio/actual/s10-blind-10_jean_saigne_beaucoup.mp3","button_pressed":"1","test_part":"test","phrase":"10","condition":"blind","subject":"s10","trial_type":"audio-button-response","trial_index":155,"time_elapsed":342733,"internal_node_id":"0.0-1.0-0.73"},{"rt":1991.9200000003912,"stimulus":"audio/actual/s7-blind-10_jean_saigne_beaucoup.mp3","button_pressed":"0","test_part":"test","phrase":"10","condition":"blind","subject":"s7","trial_type":"audio-button-response","trial_index":157,"time_elapsed":345052,"internal_node_id":"0.0-1.0-0.74"},{"rt":2943.2850000011967,"stimulus":"audio/actual/s10-blind-10bis_jenseigne_beaucoup.mp3","button_pressed":"0","test_part":"test","phrase":"10bis","condition":"blind","subject":"s10","trial_type":"audio-button-response","trial_index":159,"time_elapsed":348357,"internal_node_id":"0.0-1.0-0.75"},{"rt":4123.66000000108,"stimulus":"audio/actual/s3-blind-10_jean_saigne_beaucoup.mp3","button_pressed":"1","test_part":"test","phrase":"10","condition":"blind","subject":"s3","trial_type":"audio-button-response","trial_index":161,"time_elapsed":352962,"internal_node_id":"0.0-1.0-0.76"},{"rt":3209.56500000105,"stimulus":"audio/actual/s1-blind-10_jean_saigne_beaucoup.mp3","button_pressed":"0","test_part":"test","phrase":"10","condition":"blind","subject":"s1","trial_type":"audio-button-response","trial_index":163,"time_elapsed":356656,"internal_node_id":"0.0-1.0-0.77"},{"rt":3630.3100000005215,"stimulus":"audio/actual/s4-blind-10bis_jenseigne_beaucoup.mp3","button_pressed":"1","test_part":"test","phrase":"10bis","condition":"blind","subject":"s4","trial_type":"audio-button-response","trial_index":165,"time_elapsed":361020,"internal_node_id":"0.0-1.0-0.78"},{"rt":4191.694999999541,"stimulus":"audio/actual/s3-guide-10_jean_saigne_beaucoup.mp3","button_pressed":"0","test_part":"test","phrase":"10","condition":"guide","subject":"s3","trial_type":"audio-button-response","trial_index":167,"time_elapsed":366092,"internal_node_id":"0.0-1.0-0.79"}]