[{"rt":2851.4499999582767,"stimulus":"audio/actual/s10-imitation-10_jean_saigne_beaucoup-11_cut1norm.mp3","button_pressed":"0","test_part":"test","phrase":"10","condition":"imitation","subject":"s10","trial_type":"audio-button-response","trial_index":1,"time_elapsed":6039,"internal_node_id":"0.0-1.0-0.0"},{"rt":3817.7700000815094,"stimulus":"audio/actual/s2-guide-10_jean_saigne_beaucoup.mp3","button_pressed":"1","test_part":"test","phrase":"10","condition":"guide","subject":"s2","trial_type":"audio-button-response","trial_index":3,"time_elapsed":10882,"internal_node_id":"0.0-1.0-0.1"},{"rt":2377.570000011474,"stimulus":"audio/actual/s6-lecture-10_jean_saigne_beaucoup-1_cut1norm.mp3","button_pressed":"0","test_part":"test","phrase":"10","condition":"lecture","subject":"s6","trial_type":"audio-button-response","trial_index":5,"time_elapsed":14185,"internal_node_id":"0.0-1.0-0.2"},{"rt":1823.6700003035367,"stimulus":"audio/actual/s2-imitation-10bis_jenseigne_beaucoup-5_cut1norm.mp3","button_pressed":"1","test_part":"test","phrase":"10bis","condition":"imitation","subject":"s2","trial_type":"audio-button-response","trial_index":7,"time_elapsed":16945,"internal_node_id":"0.0-1.0-0.3"},{"rt":3600.46000033617,"stimulus":"audio/actual/s4-guide-10_jean_saigne_beaucoup.mp3","button_pressed":"0","test_part":"test","phrase":"10","condition":"guide","subject":"s4","trial_type":"audio-button-response","trial_index":9,"time_elapsed":21785,"internal_node_id":"0.0-1.0-0.4"},{"rt":1748.4050001949072,"stimulus":"audio/actual/s1-imitation-10_jean_saigne_beaucoup-11_cut1norm.mp3","button_pressed":"0","test_part":"test","phrase":"10","condition":"imitation","subject":"s1","trial_type":"audio-button-response","trial_index":11,"time_elapsed":25264,"internal_node_id":"0.0-1.0-0.5"},{"rt":1500.9299996308982,"stimulus":"audio/actual/s5-blind-10bis_jenseigne_beaucoup.mp3","button_pressed":"1","test_part":"test","phrase":"10bis","condition":"blind","subject":"s5","trial_type":"audio-button-response","trial_index":13,"time_elapsed":27497,"internal_node_id":"0.0-1.0-0.6"},{"rt":1835.4050000198185,"stimulus":"audio/actual/s7-blind-10bis_jenseigne_beaucoup.mp3","button_pressed":"1","test_part":"test","phrase":"10bis","condition":"blind","subject":"s7","trial_type":"audio-button-response","trial_index":15,"time_elapsed":30147,"internal_node_id":"0.0-1.0-0.7"},{"rt":1408.1299998797476,"stimulus":"audio/actual/s5-guide-10bis_jenseigne_beaucoup.mp3","button_pressed":"1","test_part":"test","phrase":"10bis","condition":"guide","subject":"s5","trial_type":"audio-button-response","trial_index":17,"time_elapsed":32321,"internal_node_id":"0.0-1.0-0.8"},{"rt":1630.2299997769296,"stimulus":"audio/actual/s6-imitation-10_jean_saigne_beaucoup-5_cut1norm.mp3","button_pressed":"0","test_part":"test","phrase":"10","condition":"imitation","subject":"s6","trial_type":"audio-button-response","trial_index":19,"time_elapsed":34675,"internal_node_id":"0.0-1.0-0.9"},{"rt":1831.7249999381602,"stimulus":"audio/actual/s9-guide-10bis_jenseigne_beaucoup.mp3","button_pressed":"1","test_part":"test","phrase":"10bis","condition":"guide","subject":"s9","trial_type":"audio-button-response","trial_index":21,"time_elapsed":37587,"internal_node_id":"0.0-1.0-0.10"},{"rt":2217.9250000044703,"stimulus":"audio/actual/s6-blind-10_jean_saigne_beaucoup.mp3","button_pressed":"0","test_part":"test","phrase":"10","condition":"blind","subject":"s6","trial_type":"audio-button-response","trial_index":23,"time_elapsed":40379,"internal_node_id":"0.0-1.0-0.11"},{"rt":1834.5300001092255,"stimulus":"audio/actual/s9-guide-10_jean_saigne_beaucoup.mp3","button_pressed":"0","test_part":"test","phrase":"10","condition":"guide","subject":"s9","trial_type":"audio-button-response","trial_index":25,"time_elapsed":42931,"internal_node_id":"0.0-1.0-0.12"},{"rt":1423.1000002473593,"stimulus":"audio/actual/s6-lecture-10bis_jenseigne_beaucoup-0_cut1norm.mp3","button_pressed":"1","test_part":"test","phrase":"10bis","condition":"lecture","subject":"s6","trial_type":"audio-button-response","trial_index":27,"time_elapsed":45019,"internal_node_id":"0.0-1.0-0.13"},{"rt":1822.6999999023974,"stimulus":"audio/actual/s3-guide-10bis_jenseigne_beaucoup.mp3","button_pressed":"0","test_part":"test","phrase":"10bis","condition":"guide","subject":"s3","trial_type":"audio-button-response","trial_index":29,"time_elapsed":47196,"internal_node_id":"0.0-1.0-0.14"},{"rt":1967.064999975264,"stimulus":"audio/actual/s4-lecture-10bis_jenseigne_beaucoup-0_cut1norm.mp3","button_pressed":"1","test_part":"test","phrase":"10bis","condition":"lecture","subject":"s4","trial_type":"audio-button-response","trial_index":31,"time_elapsed":49532,"internal_node_id":"0.0-1.0-0.15"},{"rt":2279.4149997644126,"stimulus":"audio/actual/s2-lecture-10bis_jenseigne_beaucoup-6_cut1norm.mp3","button_pressed":"1","test_part":"test","phrase":"10bis","condition":"lecture","subject":"s2","trial_type":"audio-button-response","trial_index":33,"time_elapsed":52379,"internal_node_id":"0.0-1.0-0.16"},{"rt":2060.3149998933077,"stimulus":"audio/actual/s4-lecture-10_jean_saigne_beaucoup-1_cut1norm.mp3","button_pressed":"0","test_part":"test","phrase":"10","condition":"lecture","subject":"s4","trial_type":"audio-button-response","trial_index":35,"time_elapsed":55061,"internal_node_id":"0.0-1.0-0.17"},{"rt":1964.7849998436868,"stimulus":"audio/actual/s5-lecture-10_jean_saigne_beaucoup-5_cut1norm.mp3","button_pressed":"0","test_part":"test","phrase":"10","condition":"lecture","subject":"s5","trial_type":"audio-button-response","trial_index":37,"time_elapsed":57598,"internal_node_id":"0.0-1.0-0.18"},{"rt":2213.5649998672307,"stimulus":"audio/actual/s10-blind-10bis_jenseigne_beaucoup.mp3","button_pressed":"1","test_part":"test","phrase":"10bis","condition":"blind","subject":"s10","trial_type":"audio-button-response","trial_index":39,"time_elapsed":60438,"internal_node_id":"0.0-1.0-0.19"},{"rt":3961.499999742955,"stimulus":"audio/actual/s8-guide-10_jean_saigne_beaucoup.mp3","button_pressed":"0","test_part":"test","phrase":"10","condition":"guide","subject":"s8","trial_type":"audio-button-response","trial_index":41,"time_elapsed":64990,"internal_node_id":"0.0-1.0-0.20"},{"rt":2569.3600000813603,"stimulus":"audio/actual/s3-lecture-10bis_jenseigne_beaucoup-3_cut1norm.mp3","button_pressed":"1","test_part":"test","phrase":"10bis","condition":"lecture","subject":"s3","trial_type":"audio-button-response","trial_index":43,"time_elapsed":67863,"internal_node_id":"0.0-1.0-0.21"},{"rt":1849.6849997900426,"stimulus":"audio/actual/s6-imitation-10bis_jenseigne_beaucoup-4_cut1norm.mp3","button_pressed":"1","test_part":"test","phrase":"10bis","condition":"imitation","subject":"s6","trial_type":"audio-button-response","trial_index":45,"time_elapsed":69951,"internal_node_id":"0.0-1.0-0.22"},{"rt":1553.4199997782707,"stimulus":"audio/actual/s4-imitation-10_jean_saigne_beaucoup-1_cut1norm.mp3","button_pressed":"0","test_part":"test","phrase":"10","condition":"imitation","subject":"s4","trial_type":"audio-button-response","trial_index":47,"time_elapsed":71831,"internal_node_id":"0.0-1.0-0.23"},{"rt":2020.3149998560548,"stimulus":"audio/actual/s6-guide-10_jean_saigne_beaucoup.mp3","button_pressed":"0","test_part":"test","phrase":"10","condition":"guide","subject":"s6","trial_type":"audio-button-response","trial_index":49,"time_elapsed":74214,"internal_node_id":"0.0-1.0-0.24"},{"rt":3706.394999753684,"stimulus":"audio/actual/s3-guide-10_jean_saigne_beaucoup.mp3","button_pressed":"2","test_part":"test","phrase":"10","condition":"guide","subject":"s3","trial_type":"audio-button-response","trial_index":51,"time_elapsed":78208,"internal_node_id":"0.0-1.0-0.25"},{"rt":1973.6350001767278,"stimulus":"audio/actual/s3-guide-10_jean_saigne_beaucoup.mp3","button_pressed":"0","test_part":"test","phrase":"10","condition":"guide","subject":"s3","trial_type":"audio-button-response","trial_index":52,"time_elapsed":80185,"internal_node_id":"0.0-1.0-1.25-0.25"},{"rt":1767.4400000832975,"stimulus":"audio/actual/s6-blind-10bis_jenseigne_beaucoup.mp3","button_pressed":"0","test_part":"test","phrase":"10bis","condition":"blind","subject":"s6","trial_type":"audio-button-response","trial_index":54,"time_elapsed":82264,"internal_node_id":"0.0-1.0-0.26"},{"rt":1285.755000077188,"stimulus":"audio/actual/s9-imitation-10bis_jenseigne_beaucoup-5_cut1norm.mp3","button_pressed":"1","test_part":"test","phrase":"10bis","condition":"imitation","subject":"s9","trial_type":"audio-button-response","trial_index":56,"time_elapsed":84200,"internal_node_id":"0.0-1.0-0.27"},{"rt":2017.3499998636544,"stimulus":"audio/actual/s6-guide-10bis_jenseigne_beaucoup.mp3","button_pressed":"1","test_part":"test","phrase":"10bis","condition":"guide","subject":"s6","trial_type":"audio-button-response","trial_index":58,"time_elapsed":86490,"internal_node_id":"0.0-1.0-0.28"},{"rt":2930.8949997648597,"stimulus":"audio/actual/s10-blind-10_jean_saigne_beaucoup.mp3","button_pressed":"0","test_part":"test","phrase":"10","condition":"blind","subject":"s10","trial_type":"audio-button-response","trial_index":60,"time_elapsed":89608,"internal_node_id":"0.0-1.0-0.29"},{"rt":3547.235000412911,"stimulus":"audio/actual/s8-imitation-10_jean_saigne_beaucoup-10_cut1norm.mp3","button_pressed":"0","test_part":"test","phrase":"10","condition":"imitation","subject":"s8","trial_type":"audio-button-response","trial_index":62,"time_elapsed":93425,"internal_node_id":"0.0-1.0-0.30"},{"rt":1416.4200001396239,"stimulus":"audio/actual/s7-imitation-10bis_jenseigne_beaucoup-2_cut1norm.mp3","button_pressed":"1","test_part":"test","phrase":"10bis","condition":"imitation","subject":"s7","trial_type":"audio-button-response","trial_index":64,"time_elapsed":95058,"internal_node_id":"0.0-1.0-0.31"},{"rt":3475.115000270307,"stimulus":"audio/actual/s5-blind-10_jean_saigne_beaucoup.mp3","button_pressed":"0","test_part":"test","phrase":"10","condition":"blind","subject":"s5","trial_type":"audio-button-response","trial_index":66,"time_elapsed":98785,"internal_node_id":"0.0-1.0-0.32"},{"rt":1877.905000001192,"stimulus":"audio/actual/s8-lecture-10_jean_saigne_beaucoup-10_cut1norm.mp3","button_pressed":"0","test_part":"test","phrase":"10","condition":"lecture","subject":"s8","trial_type":"audio-button-response","trial_index":68,"time_elapsed":100913,"internal_node_id":"0.0-1.0-0.33"},{"rt":1258.984999731183,"stimulus":"audio/actual/s9-blind-10bis_jenseigne_beaucoup.mp3","button_pressed":"1","test_part":"test","phrase":"10bis","condition":"blind","subject":"s9","trial_type":"audio-button-response","trial_index":70,"time_elapsed":102393,"internal_node_id":"0.0-1.0-0.34"},{"rt":1194.1599999554455,"stimulus":"audio/actual/s5-lecture-10bis_jenseigne_beaucoup-4_cut1norm.mp3","button_pressed":"1","test_part":"test","phrase":"10bis","condition":"lecture","subject":"s5","trial_type":"audio-button-response","trial_index":72,"time_elapsed":103867,"internal_node_id":"0.0-1.0-0.35"},{"rt":1689.3950002267957,"stimulus":"audio/actual/s1-lecture-10bis_jenseigne_beaucoup-3_cut1norm.mp3","button_pressed":"1","test_part":"test","phrase":"10bis","condition":"lecture","subject":"s1","trial_type":"audio-button-response","trial_index":74,"time_elapsed":105739,"internal_node_id":"0.0-1.0-0.36"},{"rt":1207.4799998663366,"stimulus":"audio/actual/s9-blind-10_jean_saigne_beaucoup.mp3","button_pressed":"0","test_part":"test","phrase":"10","condition":"blind","subject":"s9","trial_type":"audio-button-response","trial_index":76,"time_elapsed":107115,"internal_node_id":"0.0-1.0-0.37"},{"rt":1163.9749999158084,"stimulus":"audio/actual/s4-imitation-10bis_jenseigne_beaucoup-0_cut1norm.mp3","button_pressed":"1","test_part":"test","phrase":"10bis","condition":"imitation","subject":"s4","trial_type":"audio-button-response","trial_index":78,"time_elapsed":108604,"internal_node_id":"0.0-1.0-0.38"},{"rt":1278.6699999123812,"stimulus":"audio/actual/s8-lecture-10bis_jenseigne_beaucoup-11_cut1norm.mp3","button_pressed":"1","test_part":"test","phrase":"10bis","condition":"lecture","subject":"s8","trial_type":"audio-button-response","trial_index":80,"time_elapsed":110147,"internal_node_id":"0.0-1.0-0.39"},{"rt":2048.2700001448393,"stimulus":"audio/actual/s2-blind-10bis_jenseigne_beaucoup.mp3","button_pressed":"1","test_part":"test","phrase":"10bis","condition":"blind","subject":"s2","trial_type":"audio-button-response","trial_index":82,"time_elapsed":112403,"internal_node_id":"0.0-1.0-0.40"},{"rt":1242.0199997723103,"stimulus":"audio/actual/s7-guide-10_jean_saigne_beaucoup.mp3","button_pressed":"0","test_part":"test","phrase":"10","condition":"guide","subject":"s7","trial_type":"audio-button-response","trial_index":84,"time_elapsed":113860,"internal_node_id":"0.0-1.0-0.41"},{"rt":1118.8600002788007,"stimulus":"audio/actual/s8-imitation-10bis_jenseigne_beaucoup-11_cut1norm.mp3","button_pressed":"1","test_part":"test","phrase":"10bis","condition":"imitation","subject":"s8","trial_type":"audio-button-response","trial_index":86,"time_elapsed":116307,"internal_node_id":"0.0-1.0-0.42"},{"rt":1480.5250000208616,"stimulus":"audio/actual/s10-lecture-10_jean_saigne_beaucoup-10_cut1norm.mp3","button_pressed":"1","test_part":"test","phrase":"10","condition":"lecture","subject":"s10","trial_type":"audio-button-response","trial_index":88,"time_elapsed":117965,"internal_node_id":"0.0-1.0-0.43"},{"rt":2575.724999886006,"stimulus":"audio/actual/s1-lecture-10_jean_saigne_beaucoup-2_cut1norm.mp3","button_pressed":"1","test_part":"test","phrase":"10","condition":"lecture","subject":"s1","trial_type":"audio-button-response","trial_index":90,"time_elapsed":120764,"internal_node_id":"0.0-1.0-0.44"},{"rt":1317.8300000727177,"stimulus":"audio/actual/s2-guide-10bis_jenseigne_beaucoup.mp3","button_pressed":"1","test_part":"test","phrase":"10bis","condition":"guide","subject":"s2","trial_type":"audio-button-response","trial_index":92,"time_elapsed":122293,"internal_node_id":"0.0-1.0-0.45"},{"rt":1190.2999999001622,"stimulus":"audio/actual/s1-imitation-10bis_jenseigne_beaucoup-10_cut1norm.mp3","button_pressed":"1","test_part":"test","phrase":"10bis","condition":"imitation","subject":"s1","trial_type":"audio-button-response","trial_index":94,"time_elapsed":123701,"internal_node_id":"0.0-1.0-0.46"},{"rt":1211.3100001588464,"stimulus":"audio/actual/s7-imitation-10_jean_saigne_beaucoup-3_cut1norm.mp3","button_pressed":"0","test_part":"test","phrase":"10","condition":"imitation","subject":"s7","trial_type":"audio-button-response","trial_index":96,"time_elapsed":125125,"internal_node_id":"0.0-1.0-0.47"},{"rt":1500.0300002284348,"stimulus":"audio/actual/s2-imitation-10_jean_saigne_beaucoup-4_cut1norm.mp3","button_pressed":"0","test_part":"test","phrase":"10","condition":"imitation","subject":"s2","trial_type":"audio-button-response","trial_index":98,"time_elapsed":126933,"internal_node_id":"0.0-1.0-0.48"},{"rt":1729.7499999403954,"stimulus":"audio/actual/s4-guide-10bis_jenseigne_beaucoup.mp3","button_pressed":"0","test_part":"test","phrase":"10bis","condition":"guide","subject":"s4","trial_type":"audio-button-response","trial_index":100,"time_elapsed":128878,"internal_node_id":"0.0-1.0-0.49"},{"rt":2396.4749998413026,"stimulus":"audio/actual/s10-guide-10bis_jenseigne_beaucoup.mp3","button_pressed":"0","test_part":"test","phrase":"10bis","condition":"guide","subject":"s10","trial_type":"audio-button-response","trial_index":102,"time_elapsed":131532,"internal_node_id":"0.0-1.0-0.50"},{"rt":1326.8349999561906,"stimulus":"audio/actual/s7-lecture-10_jean_saigne_beaucoup-8_cut1norm.mp3","button_pressed":"1","test_part":"test","phrase":"10","condition":"lecture","subject":"s7","trial_type":"audio-button-response","trial_index":104,"time_elapsed":133142,"internal_node_id":"0.0-1.0-0.51"},{"rt":1433.8650000281632,"stimulus":"audio/actual/s1-guide-10_jean_saigne_beaucoup.mp3","button_pressed":"0","test_part":"test","phrase":"10","condition":"guide","subject":"s1","trial_type":"audio-button-response","trial_index":106,"time_elapsed":134749,"internal_node_id":"0.0-1.0-0.52"},{"rt":1544.4400003179908,"stimulus":"audio/actual/s9-imitation-10_jean_saigne_beaucoup-4_cut1norm.mp3","button_pressed":"0","test_part":"test","phrase":"10","condition":"imitation","subject":"s9","trial_type":"audio-button-response","trial_index":108,"time_elapsed":136566,"internal_node_id":"0.0-1.0-0.53"},{"rt":2413.034999743104,"stimulus":"audio/actual/s4-blind-10_jean_saigne_beaucoup.mp3","button_pressed":"0","test_part":"test","phrase":"10","condition":"blind","subject":"s4","trial_type":"audio-button-response","trial_index":110,"time_elapsed":139158,"internal_node_id":"0.0-1.0-0.54"},{"rt":946.2249996140599,"stimulus":"audio/actual/s7-guide-10bis_jenseigne_beaucoup.mp3","button_pressed":"1","test_part":"test","phrase":"10bis","condition":"guide","subject":"s7","trial_type":"audio-button-response","trial_index":112,"time_elapsed":140335,"internal_node_id":"0.0-1.0-0.55"},{"rt":1966.6900001466274,"stimulus":"audio/actual/s3-blind-10_jean_saigne_beaucoup.mp3","button_pressed":"0","test_part":"test","phrase":"10","condition":"blind","subject":"s3","trial_type":"audio-button-response","trial_index":114,"time_elapsed":142454,"internal_node_id":"0.0-1.0-0.56"},{"rt":2028.2649998553097,"stimulus":"audio/actual/s1-blind-10bis_jenseigne_beaucoup.mp3","button_pressed":"0","test_part":"test","phrase":"10bis","condition":"blind","subject":"s1","trial_type":"audio-button-response","trial_index":116,"time_elapsed":144702,"internal_node_id":"0.0-1.0-0.57"},{"rt":1482.9099997878075,"stimulus":"audio/actual/s5-guide-10_jean_saigne_beaucoup.mp3","button_pressed":"0","test_part":"test","phrase":"10","condition":"guide","subject":"s5","trial_type":"audio-button-response","trial_index":118,"time_elapsed":146456,"internal_node_id":"0.0-1.0-0.58"},{"rt":2677.285000216216,"stimulus":"audio/actual/s10-guide-10_jean_saigne_beaucoup.mp3","button_pressed":"0","test_part":"test","phrase":"10","condition":"guide","subject":"s10","trial_type":"audio-button-response","trial_index":120,"time_elapsed":149320,"internal_node_id":"0.0-1.0-0.59"},{"rt":1528.6399996839464,"stimulus":"audio/actual/s9-lecture-10bis_jenseigne_beaucoup-2_cut1norm.mp3","button_pressed":"1","test_part":"test","phrase":"10bis","condition":"lecture","subject":"s9","trial_type":"audio-button-response","trial_index":122,"time_elapsed":151168,"internal_node_id":"0.0-1.0-0.60"},{"rt":1482.9450002871454,"stimulus":"audio/actual/s8-blind-10_jean_saigne_beaucoup.mp3","button_pressed":"0","test_part":"test","phrase":"10","condition":"blind","subject":"s8","trial_type":"audio-button-response","trial_index":124,"time_elapsed":152847,"internal_node_id":"0.0-1.0-0.61"},{"rt":1515.704999677837,"stimulus":"audio/actual/s2-lecture-10_jean_saigne_beaucoup-7_cut1norm.mp3","button_pressed":"0","test_part":"test","phrase":"10","condition":"lecture","subject":"s2","trial_type":"audio-button-response","trial_index":126,"time_elapsed":154530,"internal_node_id":"0.0-1.0-0.62"},{"rt":2031.08000010252,"stimulus":"audio/actual/s9-lecture-10_jean_saigne_beaucoup-3_cut1norm.mp3","button_pressed":"0","test_part":"test","phrase":"10","condition":"lecture","subject":"s9","trial_type":"audio-button-response","trial_index":128,"time_elapsed":156785,"internal_node_id":"0.0-1.0-0.63"},{"rt":1660.940000321716,"stimulus":"audio/actual/s2-blind-10_jean_saigne_beaucoup.mp3","button_pressed":"1","test_part":"test","phrase":"10","condition":"blind","subject":"s2","trial_type":"audio-button-response","trial_index":130,"time_elapsed":158728,"internal_node_id":"0.0-1.0-0.64"},{"rt":2395.5350001342595,"stimulus":"audio/actual/s1-blind-10_jean_saigne_beaucoup.mp3","button_pressed":"0","test_part":"test","phrase":"10","condition":"blind","subject":"s1","trial_type":"audio-button-response","trial_index":132,"time_elapsed":161354,"internal_node_id":"0.0-1.0-0.65"},{"rt":1131.4849997870624,"stimulus":"audio/actual/s8-blind-10bis_jenseigne_beaucoup.mp3","button_pressed":"1","test_part":"test","phrase":"10bis","condition":"blind","subject":"s8","trial_type":"audio-button-response","trial_index":134,"time_elapsed":162674,"internal_node_id":"0.0-1.0-0.66"},{"rt":1751.579999923706,"stimulus":"audio/actual/s5-imitation-10bis_jenseigne_beaucoup-11_cut1norm.mp3","button_pressed":"1","test_part":"test","phrase":"10bis","condition":"imitation","subject":"s5","trial_type":"audio-button-response","trial_index":136,"time_elapsed":164624,"internal_node_id":"0.0-1.0-0.67"},{"rt":3374.9400000087917,"stimulus":"audio/actual/s3-blind-10bis_jenseigne_beaucoup.mp3","button_pressed":"1","test_part":"test","phrase":"10bis","condition":"blind","subject":"s3","trial_type":"audio-button-response","trial_index":138,"time_elapsed":168145,"internal_node_id":"0.0-1.0-0.68"},{"rt":2673.205000348389,"stimulus":"audio/actual/s1-guide-10bis_jenseigne_beaucoup.mp3","button_pressed":"1","test_part":"test","phrase":"10bis","condition":"guide","subject":"s1","trial_type":"audio-button-response","trial_index":140,"time_elapsed":170977,"internal_node_id":"0.0-1.0-0.69"},{"rt":1291.605000384152,"stimulus":"audio/actual/s8-guide-10bis_jenseigne_beaucoup.mp3","button_pressed":"1","test_part":"test","phrase":"10bis","condition":"guide","subject":"s8","trial_type":"audio-button-response","trial_index":142,"time_elapsed":172458,"internal_node_id":"0.0-1.0-0.70"},{"rt":1159.0950000099838,"stimulus":"audio/actual/s7-blind-10_jean_saigne_beaucoup.mp3","button_pressed":"0","test_part":"test","phrase":"10","condition":"blind","subject":"s7","trial_type":"audio-button-response","trial_index":144,"time_elapsed":173873,"internal_node_id":"0.0-1.0-0.71"},{"rt":1467.7149998024106,"stimulus":"audio/actual/s5-imitation-10_jean_saigne_beaucoup-10_cut1norm.mp3","button_pressed":"0","test_part":"test","phrase":"10","condition":"imitation","subject":"s5","trial_type":"audio-button-response","trial_index":146,"time_elapsed":175498,"internal_node_id":"0.0-1.0-0.72"},{"rt":1466.2250000983477,"stimulus":"audio/actual/s10-lecture-10bis_jenseigne_beaucoup-11_cut1norm.mp3","button_pressed":"1","test_part":"test","phrase":"10bis","condition":"lecture","subject":"s10","trial_type":"audio-button-response","trial_index":148,"time_elapsed":177131,"internal_node_id":"0.0-1.0-0.73"},{"rt":2057.4400001205504,"stimulus":"audio/actual/s3-imitation-10_jean_saigne_beaucoup-2_cut1norm.mp3","button_pressed":"1","test_part":"test","phrase":"10","condition":"imitation","subject":"s3","trial_type":"audio-button-response","trial_index":150,"time_elapsed":179347,"internal_node_id":"0.0-1.0-0.74"},{"rt":1488.1149996072054,"stimulus":"audio/actual/s4-blind-10bis_jenseigne_beaucoup.mp3","button_pressed":"0","test_part":"test","phrase":"10bis","condition":"blind","subject":"s4","trial_type":"audio-button-response","trial_index":152,"time_elapsed":181027,"internal_node_id":"0.0-1.0-0.75"},{"rt":1388.5000003501773,"stimulus":"audio/actual/s7-lecture-10bis_jenseigne_beaucoup-9_cut1norm.mp3","button_pressed":"1","test_part":"test","phrase":"10bis","condition":"lecture","subject":"s7","trial_type":"audio-button-response","trial_index":154,"time_elapsed":182898,"internal_node_id":"0.0-1.0-0.76"},{"rt":1381.2850001268089,"stimulus":"audio/actual/s3-lecture-10_jean_saigne_beaucoup-2_cut1norm.mp3","button_pressed":"0","test_part":"test","phrase":"10","condition":"lecture","subject":"s3","trial_type":"audio-button-response","trial_index":156,"time_elapsed":184491,"internal_node_id":"0.0-1.0-0.77"},{"rt":1621.114999987185,"stimulus":"audio/actual/s10-imitation-10bis_jenseigne_beaucoup-10_cut1norm.mp3","button_pressed":"1","test_part":"test","phrase":"10bis","condition":"imitation","subject":"s10","trial_type":"audio-button-response","trial_index":158,"time_elapsed":186403,"internal_node_id":"0.0-1.0-0.78"},{"rt":1226.2599999085069,"stimulus":"audio/actual/s3-imitation-10bis_jenseigne_beaucoup-3_cut1norm.mp3","button_pressed":"1","test_part":"test","phrase":"10bis","condition":"imitation","subject":"s3","trial_type":"audio-button-response","trial_index":160,"time_elapsed":187787,"internal_node_id":"0.0-1.0-0.79"}]