[{"rt":8334.640000015497,"stimulus":"audio/actual/s4-blind-10_jean_saigne_beaucoup.mp3","button_pressed":"1","test_part":"test","phrase":"10","condition":"blind","subject":"s4","trial_type":"audio-button-response","trial_index":1,"time_elapsed":10386,"internal_node_id":"0.0-1.0-0.0"},{"rt":3410.5450003407896,"stimulus":"audio/actual/s2-lecture-10bis_jenseigne_beaucoup-6_cut1norm.mp3","button_pressed":"1","test_part":"test","phrase":"10bis","condition":"lecture","subject":"s2","trial_type":"audio-button-response","trial_index":3,"time_elapsed":15276,"internal_node_id":"0.0-1.0-0.1"},{"rt":1922.4499999545515,"stimulus":"audio/actual/s8-imitation-10_jean_saigne_beaucoup-10_cut1norm.mp3","button_pressed":"0","test_part":"test","phrase":"10","condition":"imitation","subject":"s8","trial_type":"audio-button-response","trial_index":5,"time_elapsed":20499,"internal_node_id":"0.0-1.0-0.2"},{"rt":2271.0400000214577,"stimulus":"audio/actual/s6-guide-10bis_jenseigne_beaucoup.mp3","button_pressed":"0","test_part":"test","phrase":"10bis","condition":"guide","subject":"s6","trial_type":"audio-button-response","trial_index":7,"time_elapsed":23901,"internal_node_id":"0.0-1.0-0.3"},{"rt":2763.029999565333,"stimulus":"audio/actual/s7-lecture-10bis_jenseigne_beaucoup-9_cut1norm.mp3","button_pressed":"0","test_part":"test","phrase":"10bis","condition":"lecture","subject":"s7","trial_type":"audio-button-response","trial_index":9,"time_elapsed":28055,"internal_node_id":"0.0-1.0-0.4"},{"rt":6653.849999886006,"stimulus":"audio/actual/s2-lecture-10_jean_saigne_beaucoup-7_cut1norm.mp3","button_pressed":"0","test_part":"test","phrase":"10","condition":"lecture","subject":"s2","trial_type":"audio-button-response","trial_index":11,"time_elapsed":35529,"internal_node_id":"0.0-1.0-0.5"},{"rt":3681.940000038594,"stimulus":"audio/actual/s10-guide-10bis_jenseigne_beaucoup.mp3","button_pressed":"1","test_part":"test","phrase":"10bis","condition":"guide","subject":"s10","trial_type":"audio-button-response","trial_index":13,"time_elapsed":40107,"internal_node_id":"0.0-1.0-0.6"},{"rt":2370.9800001233816,"stimulus":"audio/actual/s6-lecture-10_jean_saigne_beaucoup-1_cut1norm.mp3","button_pressed":"0","test_part":"test","phrase":"10","condition":"lecture","subject":"s6","trial_type":"audio-button-response","trial_index":15,"time_elapsed":45098,"internal_node_id":"0.0-1.0-0.7"},{"rt":3850.180000066757,"stimulus":"audio/actual/s4-blind-10bis_jenseigne_beaucoup.mp3","button_pressed":"0","test_part":"test","phrase":"10bis","condition":"blind","subject":"s4","trial_type":"audio-button-response","trial_index":17,"time_elapsed":50389,"internal_node_id":"0.0-1.0-0.8"},{"rt":2124.580000061542,"stimulus":"audio/actual/s7-blind-10_jean_saigne_beaucoup.mp3","button_pressed":"0","test_part":"test","phrase":"10","condition":"blind","subject":"s7","trial_type":"audio-button-response","trial_index":19,"time_elapsed":53125,"internal_node_id":"0.0-1.0-0.9"},{"rt":2527.8400001116097,"stimulus":"audio/actual/s1-guide-10bis_jenseigne_beaucoup.mp3","button_pressed":"1","test_part":"test","phrase":"10bis","condition":"guide","subject":"s1","trial_type":"audio-button-response","trial_index":21,"time_elapsed":56788,"internal_node_id":"0.0-1.0-0.10"},{"rt":1669.4149998947978,"stimulus":"audio/actual/s7-lecture-10_jean_saigne_beaucoup-8_cut1norm.mp3","button_pressed":"1","test_part":"test","phrase":"10","condition":"lecture","subject":"s7","trial_type":"audio-button-response","trial_index":23,"time_elapsed":59098,"internal_node_id":"0.0-1.0-0.11"},{"rt":2207.9350003041327,"stimulus":"audio/actual/s3-guide-10bis_jenseigne_beaucoup.mp3","button_pressed":"0","test_part":"test","phrase":"10bis","condition":"guide","subject":"s3","trial_type":"audio-button-response","trial_index":25,"time_elapsed":63379,"internal_node_id":"0.0-1.0-0.12"},{"rt":2023.3450001105666,"stimulus":"audio/actual/s10-blind-10bis_jenseigne_beaucoup.mp3","button_pressed":"0","test_part":"test","phrase":"10bis","condition":"blind","subject":"s10","trial_type":"audio-button-response","trial_index":27,"time_elapsed":66279,"internal_node_id":"0.0-1.0-0.13"},{"rt":2509.200000204146,"stimulus":"audio/actual/s1-blind-10_jean_saigne_beaucoup.mp3","button_pressed":"1","test_part":"test","phrase":"10","condition":"blind","subject":"s1","trial_type":"audio-button-response","trial_index":29,"time_elapsed":69688,"internal_node_id":"0.0-1.0-0.14"},{"rt":2371.48500001058,"stimulus":"audio/actual/s9-lecture-10bis_jenseigne_beaucoup-2_cut1norm.mp3","button_pressed":"1","test_part":"test","phrase":"10bis","condition":"lecture","subject":"s9","trial_type":"audio-button-response","trial_index":31,"time_elapsed":73774,"internal_node_id":"0.0-1.0-0.15"},{"rt":1413.8699998147786,"stimulus":"audio/actual/s8-imitation-10bis_jenseigne_beaucoup-11_cut1norm.mp3","button_pressed":"1","test_part":"test","phrase":"10bis","condition":"imitation","subject":"s8","trial_type":"audio-button-response","trial_index":33,"time_elapsed":78751,"internal_node_id":"0.0-1.0-0.16"},{"rt":2151.82500006631,"stimulus":"audio/actual/s10-lecture-10_jean_saigne_beaucoup-10_cut1norm.mp3","button_pressed":"1","test_part":"test","phrase":"10","condition":"lecture","subject":"s10","trial_type":"audio-button-response","trial_index":35,"time_elapsed":83898,"internal_node_id":"0.0-1.0-0.17"},{"rt":1955.2050000056624,"stimulus":"audio/actual/s3-imitation-10_jean_saigne_beaucoup-2_cut1norm.mp3","button_pressed":"0","test_part":"test","phrase":"10","condition":"imitation","subject":"s3","trial_type":"audio-button-response","trial_index":37,"time_elapsed":86408,"internal_node_id":"0.0-1.0-0.18"},{"rt":1919.9650003574789,"stimulus":"audio/actual/s9-blind-10_jean_saigne_beaucoup.mp3","button_pressed":"0","test_part":"test","phrase":"10","condition":"blind","subject":"s9","trial_type":"audio-button-response","trial_index":39,"time_elapsed":90299,"internal_node_id":"0.0-1.0-0.19"},{"rt":1879.2200000025332,"stimulus":"audio/actual/s3-imitation-10bis_jenseigne_beaucoup-3_cut1norm.mp3","button_pressed":"1","test_part":"test","phrase":"10bis","condition":"imitation","subject":"s3","trial_type":"audio-button-response","trial_index":41,"time_elapsed":94059,"internal_node_id":"0.0-1.0-0.20"},{"rt":2831.8749996833503,"stimulus":"audio/actual/s8-lecture-10_jean_saigne_beaucoup-10_cut1norm.mp3","button_pressed":"0","test_part":"test","phrase":"10","condition":"lecture","subject":"s8","trial_type":"audio-button-response","trial_index":43,"time_elapsed":98084,"internal_node_id":"0.0-1.0-0.21"},{"rt":2099.225000012666,"stimulus":"audio/actual/s4-imitation-10_jean_saigne_beaucoup-1_cut1norm.mp3","button_pressed":"1","test_part":"test","phrase":"10","condition":"imitation","subject":"s4","trial_type":"audio-button-response","trial_index":45,"time_elapsed":101958,"internal_node_id":"0.0-1.0-0.22"},{"rt":2002.0900000818074,"stimulus":"audio/actual/s8-lecture-10bis_jenseigne_beaucoup-11_cut1norm.mp3","button_pressed":"1","test_part":"test","phrase":"10bis","condition":"lecture","subject":"s8","trial_type":"audio-button-response","trial_index":47,"time_elapsed":105236,"internal_node_id":"0.0-1.0-0.23"},{"rt":1890.7300001010299,"stimulus":"audio/actual/s3-blind-10bis_jenseigne_beaucoup.mp3","button_pressed":"0","test_part":"test","phrase":"10bis","condition":"blind","subject":"s3","trial_type":"audio-button-response","trial_index":49,"time_elapsed":107835,"internal_node_id":"0.0-1.0-0.24"},{"rt":5425.859999842942,"stimulus":"audio/actual/s6-blind-10_jean_saigne_beaucoup.mp3","button_pressed":"0","test_part":"test","phrase":"10","condition":"blind","subject":"s6","trial_type":"audio-button-response","trial_index":51,"time_elapsed":114078,"internal_node_id":"0.0-1.0-0.25"},{"rt":2539.179999846965,"stimulus":"audio/actual/s10-imitation-10_jean_saigne_beaucoup-11_cut1norm.mp3","button_pressed":"0","test_part":"test","phrase":"10","condition":"imitation","subject":"s10","trial_type":"audio-button-response","trial_index":53,"time_elapsed":117397,"internal_node_id":"0.0-1.0-0.26"},{"rt":5482.514999806881,"stimulus":"audio/actual/s2-guide-10_jean_saigne_beaucoup.mp3","button_pressed":"1","test_part":"test","phrase":"10","condition":"guide","subject":"s2","trial_type":"audio-button-response","trial_index":55,"time_elapsed":123768,"internal_node_id":"0.0-1.0-0.27"},{"rt":2465.500000398606,"stimulus":"audio/actual/s6-imitation-10bis_jenseigne_beaucoup-4_cut1norm.mp3","button_pressed":"1","test_part":"test","phrase":"10bis","condition":"imitation","subject":"s6","trial_type":"audio-button-response","trial_index":57,"time_elapsed":127157,"internal_node_id":"0.0-1.0-0.28"},{"rt":1776.8999999389052,"stimulus":"audio/actual/s10-lecture-10bis_jenseigne_beaucoup-11_cut1norm.mp3","button_pressed":"0","test_part":"test","phrase":"10bis","condition":"lecture","subject":"s10","trial_type":"audio-button-response","trial_index":59,"time_elapsed":129624,"internal_node_id":"0.0-1.0-0.29"},{"rt":1709.654999896884,"stimulus":"audio/actual/s5-lecture-10bis_jenseigne_beaucoup-4_cut1norm.mp3","button_pressed":"0","test_part":"test","phrase":"10bis","condition":"lecture","subject":"s5","trial_type":"audio-button-response","trial_index":61,"time_elapsed":131809,"internal_node_id":"0.0-1.0-0.30"},{"rt":1677.2500001825392,"stimulus":"audio/actual/s9-blind-10bis_jenseigne_beaucoup.mp3","button_pressed":"1","test_part":"test","phrase":"10bis","condition":"blind","subject":"s9","trial_type":"audio-button-response","trial_index":63,"time_elapsed":133668,"internal_node_id":"0.0-1.0-0.31"},{"rt":1437.950000166893,"stimulus":"audio/actual/s2-imitation-10bis_jenseigne_beaucoup-5_cut1norm.mp3","button_pressed":"1","test_part":"test","phrase":"10bis","condition":"imitation","subject":"s2","trial_type":"audio-button-response","trial_index":65,"time_elapsed":135548,"internal_node_id":"0.0-1.0-0.32"},{"rt":1700.3150000236928,"stimulus":"audio/actual/s1-imitation-10bis_jenseigne_beaucoup-10_cut1norm.mp3","button_pressed":"0","test_part":"test","phrase":"10bis","condition":"imitation","subject":"s1","trial_type":"audio-button-response","trial_index":67,"time_elapsed":137638,"internal_node_id":"0.0-1.0-0.33"},{"rt":1907.8049999661744,"stimulus":"audio/actual/s2-guide-10bis_jenseigne_beaucoup.mp3","button_pressed":"1","test_part":"test","phrase":"10bis","condition":"guide","subject":"s2","trial_type":"audio-button-response","trial_index":69,"time_elapsed":139959,"internal_node_id":"0.0-1.0-0.34"},{"rt":2375.2300003543496,"stimulus":"audio/actual/s1-imitation-10_jean_saigne_beaucoup-11_cut1norm.mp3","button_pressed":"0","test_part":"test","phrase":"10","condition":"imitation","subject":"s1","trial_type":"audio-button-response","trial_index":71,"time_elapsed":142673,"internal_node_id":"0.0-1.0-0.35"},{"rt":2576.805000193417,"stimulus":"audio/actual/s3-guide-10_jean_saigne_beaucoup.mp3","button_pressed":"0","test_part":"test","phrase":"10","condition":"guide","subject":"s3","trial_type":"audio-button-response","trial_index":73,"time_elapsed":145708,"internal_node_id":"0.0-1.0-0.36"},{"rt":2173.3149997889996,"stimulus":"audio/actual/s1-guide-10_jean_saigne_beaucoup.mp3","button_pressed":"0","test_part":"test","phrase":"10","condition":"guide","subject":"s1","trial_type":"audio-button-response","trial_index":75,"time_elapsed":148299,"internal_node_id":"0.0-1.0-0.37"},{"rt":2943.5700001195073,"stimulus":"audio/actual/s7-imitation-10_jean_saigne_beaucoup-3_cut1norm.mp3","button_pressed":"0","test_part":"test","phrase":"10","condition":"imitation","subject":"s7","trial_type":"audio-button-response","trial_index":77,"time_elapsed":151592,"internal_node_id":"0.0-1.0-0.38"},{"rt":2077.3749998770654,"stimulus":"audio/actual/s1-lecture-10bis_jenseigne_beaucoup-3_cut1norm.mp3","button_pressed":"1","test_part":"test","phrase":"10bis","condition":"lecture","subject":"s1","trial_type":"audio-button-response","trial_index":79,"time_elapsed":154007,"internal_node_id":"0.0-1.0-0.39"},{"rt":1933.7900001555681,"stimulus":"audio/actual/s5-imitation-10_jean_saigne_beaucoup-10_cut1norm.mp3","button_pressed":"0","test_part":"test","phrase":"10","condition":"imitation","subject":"s5","trial_type":"audio-button-response","trial_index":81,"time_elapsed":156389,"internal_node_id":"0.0-1.0-0.40"},{"rt":3144.3900000303984,"stimulus":"audio/actual/s1-lecture-10_jean_saigne_beaucoup-2_cut1norm.mp3","button_pressed":"0","test_part":"test","phrase":"10","condition":"lecture","subject":"s1","trial_type":"audio-button-response","trial_index":83,"time_elapsed":159971,"internal_node_id":"0.0-1.0-0.41"},{"rt":4120.925000403076,"stimulus":"audio/actual/s3-lecture-10_jean_saigne_beaucoup-2_cut1norm.mp3","button_pressed":"0","test_part":"test","phrase":"10","condition":"lecture","subject":"s3","trial_type":"audio-button-response","trial_index":85,"time_elapsed":164442,"internal_node_id":"0.0-1.0-0.42"},{"rt":2955.4750001989305,"stimulus":"audio/actual/s7-guide-10_jean_saigne_beaucoup.mp3","button_pressed":"1","test_part":"test","phrase":"10","condition":"guide","subject":"s7","trial_type":"audio-button-response","trial_index":87,"time_elapsed":167747,"internal_node_id":"0.0-1.0-0.43"},{"rt":1512.2950002551079,"stimulus":"audio/actual/s9-imitation-10bis_jenseigne_beaucoup-5_cut1norm.mp3","button_pressed":"0","test_part":"test","phrase":"10bis","condition":"imitation","subject":"s9","trial_type":"audio-button-response","trial_index":89,"time_elapsed":169672,"internal_node_id":"0.0-1.0-0.44"},{"rt":2673.9500002004206,"stimulus":"audio/actual/s4-lecture-10_jean_saigne_beaucoup-1_cut1norm.mp3","button_pressed":"0","test_part":"test","phrase":"10","condition":"lecture","subject":"s4","trial_type":"audio-button-response","trial_index":91,"time_elapsed":172917,"internal_node_id":"0.0-1.0-0.45"},{"rt":4905.749999918044,"stimulus":"audio/actual/s9-guide-10_jean_saigne_beaucoup.mp3","button_pressed":"0","test_part":"test","phrase":"10","condition":"guide","subject":"s9","trial_type":"audio-button-response","trial_index":93,"time_elapsed":186752,"internal_node_id":"0.0-1.0-0.46"},{"rt":2650.679999962449,"stimulus":"audio/actual/s6-lecture-10bis_jenseigne_beaucoup-0_cut1norm.mp3","button_pressed":"1","test_part":"test","phrase":"10bis","condition":"lecture","subject":"s6","trial_type":"audio-button-response","trial_index":95,"time_elapsed":189567,"internal_node_id":"0.0-1.0-0.47"},{"rt":2324.785000178963,"stimulus":"audio/actual/s7-blind-10bis_jenseigne_beaucoup.mp3","button_pressed":"1","test_part":"test","phrase":"10bis","condition":"blind","subject":"s7","trial_type":"audio-button-response","trial_index":97,"time_elapsed":192337,"internal_node_id":"0.0-1.0-0.48"},{"rt":1614.0999998897314,"stimulus":"audio/actual/s8-blind-10_jean_saigne_beaucoup.mp3","button_pressed":"0","test_part":"test","phrase":"10","condition":"blind","subject":"s8","trial_type":"audio-button-response","trial_index":99,"time_elapsed":194363,"internal_node_id":"0.0-1.0-0.49"},{"rt":1237.449999898672,"stimulus":"audio/actual/s5-lecture-10_jean_saigne_beaucoup-5_cut1norm.mp3","button_pressed":"0","test_part":"test","phrase":"10","condition":"lecture","subject":"s5","trial_type":"audio-button-response","trial_index":101,"time_elapsed":196167,"internal_node_id":"0.0-1.0-0.50"},{"rt":1755.1700002513826,"stimulus":"audio/actual/s8-blind-10bis_jenseigne_beaucoup.mp3","button_pressed":"1","test_part":"test","phrase":"10bis","condition":"blind","subject":"s8","trial_type":"audio-button-response","trial_index":103,"time_elapsed":198018,"internal_node_id":"0.0-1.0-0.51"},{"rt":1873.7999997101724,"stimulus":"audio/actual/s4-lecture-10bis_jenseigne_beaucoup-0_cut1norm.mp3","button_pressed":"0","test_part":"test","phrase":"10bis","condition":"lecture","subject":"s4","trial_type":"audio-button-response","trial_index":105,"time_elapsed":200272,"internal_node_id":"0.0-1.0-0.52"},{"rt":1593.2749998755753,"stimulus":"audio/actual/s5-blind-10bis_jenseigne_beaucoup.mp3","button_pressed":"1","test_part":"test","phrase":"10bis","condition":"blind","subject":"s5","trial_type":"audio-button-response","trial_index":107,"time_elapsed":202203,"internal_node_id":"0.0-1.0-0.53"},{"rt":2384.5449998043478,"stimulus":"audio/actual/s4-guide-10_jean_saigne_beaucoup.mp3","button_pressed":"0","test_part":"test","phrase":"10","condition":"guide","subject":"s4","trial_type":"audio-button-response","trial_index":109,"time_elapsed":204948,"internal_node_id":"0.0-1.0-0.54"},{"rt":2048.1650000438094,"stimulus":"audio/actual/s8-guide-10_jean_saigne_beaucoup.mp3","button_pressed":"1","test_part":"test","phrase":"10","condition":"guide","subject":"s8","trial_type":"audio-button-response","trial_index":111,"time_elapsed":207114,"internal_node_id":"0.0-1.0-0.55"},{"rt":2258.65999981761,"stimulus":"audio/actual/s4-guide-10bis_jenseigne_beaucoup.mp3","button_pressed":"0","test_part":"test","phrase":"10bis","condition":"guide","subject":"s4","trial_type":"audio-button-response","trial_index":113,"time_elapsed":209841,"internal_node_id":"0.0-1.0-0.56"},{"rt":1783.6100002750754,"stimulus":"audio/actual/s8-guide-10bis_jenseigne_beaucoup.mp3","button_pressed":"1","test_part":"test","phrase":"10bis","condition":"guide","subject":"s8","trial_type":"audio-button-response","trial_index":115,"time_elapsed":211670,"internal_node_id":"0.0-1.0-0.57"},{"rt":1485.880000051111,"stimulus":"audio/actual/s5-guide-10_jean_saigne_beaucoup.mp3","button_pressed":"0","test_part":"test","phrase":"10","condition":"guide","subject":"s5","trial_type":"audio-button-response","trial_index":117,"time_elapsed":213267,"internal_node_id":"0.0-1.0-0.58"},{"rt":1612.9050003364682,"stimulus":"audio/actual/s3-lecture-10bis_jenseigne_beaucoup-3_cut1norm.mp3","button_pressed":"0","test_part":"test","phrase":"10bis","condition":"lecture","subject":"s3","trial_type":"audio-button-response","trial_index":119,"time_elapsed":215197,"internal_node_id":"0.0-1.0-0.59"},{"rt":1708.9700000360608,"stimulus":"audio/actual/s6-blind-10bis_jenseigne_beaucoup.mp3","button_pressed":"0","test_part":"test","phrase":"10bis","condition":"blind","subject":"s6","trial_type":"audio-button-response","trial_index":121,"time_elapsed":217207,"internal_node_id":"0.0-1.0-0.60"},{"rt":1916.6250000707805,"stimulus":"audio/actual/s3-blind-10_jean_saigne_beaucoup.mp3","button_pressed":"0","test_part":"test","phrase":"10","condition":"blind","subject":"s3","trial_type":"audio-button-response","trial_index":123,"time_elapsed":219497,"internal_node_id":"0.0-1.0-0.61"},{"rt":1878.6800000816584,"stimulus":"audio/actual/s7-guide-10bis_jenseigne_beaucoup.mp3","button_pressed":"1","test_part":"test","phrase":"10bis","condition":"guide","subject":"s7","trial_type":"audio-button-response","trial_index":125,"time_elapsed":221652,"internal_node_id":"0.0-1.0-0.62"},{"rt":1972.7349998429418,"stimulus":"audio/actual/s5-guide-10bis_jenseigne_beaucoup.mp3","button_pressed":"1","test_part":"test","phrase":"10bis","condition":"guide","subject":"s5","trial_type":"audio-button-response","trial_index":127,"time_elapsed":223968,"internal_node_id":"0.0-1.0-0.63"},{"rt":1619.7949997149408,"stimulus":"audio/actual/s2-imitation-10_jean_saigne_beaucoup-4_cut1norm.mp3","button_pressed":"0","test_part":"test","phrase":"10","condition":"imitation","subject":"s2","trial_type":"audio-button-response","trial_index":129,"time_elapsed":225646,"internal_node_id":"0.0-1.0-0.64"},{"rt":1695.0199999846518,"stimulus":"audio/actual/s9-imitation-10_jean_saigne_beaucoup-4_cut1norm.mp3","button_pressed":"0","test_part":"test","phrase":"10","condition":"imitation","subject":"s9","trial_type":"audio-button-response","trial_index":131,"time_elapsed":227544,"internal_node_id":"0.0-1.0-0.65"},{"rt":2070.2349999919534,"stimulus":"audio/actual/s4-imitation-10bis_jenseigne_beaucoup-0_cut1norm.mp3","button_pressed":"0","test_part":"test","phrase":"10bis","condition":"imitation","subject":"s4","trial_type":"audio-button-response","trial_index":133,"time_elapsed":229996,"internal_node_id":"0.0-1.0-0.66"},{"rt":1731.4800000749528,"stimulus":"audio/actual/s6-guide-10_jean_saigne_beaucoup.mp3","button_pressed":"1","test_part":"test","phrase":"10","condition":"guide","subject":"s6","trial_type":"audio-button-response","trial_index":135,"time_elapsed":231745,"internal_node_id":"0.0-1.0-0.67"},{"rt":1423.1549999676645,"stimulus":"audio/actual/s2-blind-10bis_jenseigne_beaucoup.mp3","button_pressed":"1","test_part":"test","phrase":"10bis","condition":"blind","subject":"s2","trial_type":"audio-button-response","trial_index":137,"time_elapsed":233257,"internal_node_id":"0.0-1.0-0.68"},{"rt":1692.1149999834597,"stimulus":"audio/actual/s6-imitation-10_jean_saigne_beaucoup-5_cut1norm.mp3","button_pressed":"0","test_part":"test","phrase":"10","condition":"imitation","subject":"s6","trial_type":"audio-button-response","trial_index":139,"time_elapsed":234961,"internal_node_id":"0.0-1.0-0.69"},{"rt":4898.98999966681,"stimulus":"audio/actual/s10-blind-10_jean_saigne_beaucoup.mp3","button_pressed":"1","test_part":"test","phrase":"10","condition":"blind","subject":"s10","trial_type":"audio-button-response","trial_index":141,"time_elapsed":240198,"internal_node_id":"0.0-1.0-0.70"},{"rt":1559.250000398606,"stimulus":"audio/actual/s5-blind-10_jean_saigne_beaucoup.mp3","button_pressed":"1","test_part":"test","phrase":"10","condition":"blind","subject":"s5","trial_type":"audio-button-response","trial_index":143,"time_elapsed":242493,"internal_node_id":"0.0-1.0-0.71"},{"rt":1814.2349999397993,"stimulus":"audio/actual/s10-imitation-10bis_jenseigne_beaucoup-10_cut1norm.mp3","button_pressed":"1","test_part":"test","phrase":"10bis","condition":"imitation","subject":"s10","trial_type":"audio-button-response","trial_index":145,"time_elapsed":244325,"internal_node_id":"0.0-1.0-0.72"},{"rt":2447.534999810159,"stimulus":"audio/actual/s1-blind-10bis_jenseigne_beaucoup.mp3","button_pressed":"0","test_part":"test","phrase":"10bis","condition":"blind","subject":"s1","trial_type":"audio-button-response","trial_index":147,"time_elapsed":246905,"internal_node_id":"0.0-1.0-0.73"},{"rt":1460.0449996069074,"stimulus":"audio/actual/s2-blind-10_jean_saigne_beaucoup.mp3","button_pressed":"0","test_part":"test","phrase":"10","condition":"blind","subject":"s2","trial_type":"audio-button-response","trial_index":149,"time_elapsed":248374,"internal_node_id":"0.0-1.0-0.74"},{"rt":1167.3500002361834,"stimulus":"audio/actual/s9-guide-10bis_jenseigne_beaucoup.mp3","button_pressed":"0","test_part":"test","phrase":"10bis","condition":"guide","subject":"s9","trial_type":"audio-button-response","trial_index":151,"time_elapsed":249624,"internal_node_id":"0.0-1.0-0.75"},{"rt":1189.285000320524,"stimulus":"audio/actual/s7-imitation-10bis_jenseigne_beaucoup-2_cut1norm.mp3","button_pressed":"0","test_part":"test","phrase":"10bis","condition":"imitation","subject":"s7","trial_type":"audio-button-response","trial_index":153,"time_elapsed":251400,"internal_node_id":"0.0-1.0-0.76"},{"rt":1356.7399997264147,"stimulus":"audio/actual/s5-imitation-10bis_jenseigne_beaucoup-11_cut1norm.mp3","button_pressed":"0","test_part":"test","phrase":"10bis","condition":"imitation","subject":"s5","trial_type":"audio-button-response","trial_index":155,"time_elapsed":252810,"internal_node_id":"0.0-1.0-0.77"},{"rt":2474.8300001956522,"stimulus":"audio/actual/s10-guide-10_jean_saigne_beaucoup.mp3","button_pressed":"0","test_part":"test","phrase":"10","condition":"guide","subject":"s10","trial_type":"audio-button-response","trial_index":157,"time_elapsed":255385,"internal_node_id":"0.0-1.0-0.78"},{"rt":1619.3649997003376,"stimulus":"audio/actual/s9-lecture-10_jean_saigne_beaucoup-3_cut1norm.mp3","button_pressed":"0","test_part":"test","phrase":"10","condition":"lecture","subject":"s9","trial_type":"audio-button-response","trial_index":159,"time_elapsed":257053,"internal_node_id":"0.0-1.0-0.79"}]