[{"rt":10093,"stimulus":"audio/actual/s5-imitation-10bis_jenseigne_beaucoup-11_cut1norm.mp3","button_pressed":"2","test_part":"test","phrase":"10bis","condition":"imitation","subject":"s5","trial_type":"audio-button-response","trial_index":1,"time_elapsed":15448,"internal_node_id":"0.0-1.0-0.0"},{"rt":1963.9999999999964,"stimulus":"audio/actual/s5-imitation-10bis_jenseigne_beaucoup-11_cut1norm.mp3","button_pressed":"0","test_part":"test","phrase":"10bis","condition":"imitation","subject":"s5","trial_type":"audio-button-response","trial_index":2,"time_elapsed":17414,"internal_node_id":"0.0-1.0-1.0-0.0"},{"rt":3019,"stimulus":"audio/actual/s2-lecture-10_jean_saigne_beaucoup-7_cut1norm.mp3","button_pressed":"0","test_part":"test","phrase":"10","condition":"lecture","subject":"s2","trial_type":"audio-button-response","trial_index":4,"time_elapsed":21302,"internal_node_id":"0.0-1.0-0.1"},{"rt":2648.0000000000036,"stimulus":"audio/actual/s7-lecture-10bis_jenseigne_beaucoup-9_cut1norm.mp3","button_pressed":"1","test_part":"test","phrase":"10bis","condition":"lecture","subject":"s7","trial_type":"audio-button-response","trial_index":6,"time_elapsed":25302,"internal_node_id":"0.0-1.0-0.2"},{"rt":4607.000000000007,"stimulus":"audio/actual/s10-guide-10bis_jenseigne_beaucoup.mp3","button_pressed":"1","test_part":"test","phrase":"10bis","condition":"guide","subject":"s10","trial_type":"audio-button-response","trial_index":8,"time_elapsed":30665,"internal_node_id":"0.0-1.0-0.3"},{"rt":2686,"stimulus":"audio/actual/s3-blind-10_jean_saigne_beaucoup.mp3","button_pressed":"1","test_part":"test","phrase":"10","condition":"blind","subject":"s3","trial_type":"audio-button-response","trial_index":10,"time_elapsed":34086,"internal_node_id":"0.0-1.0-0.4"},{"rt":3530.0000000000073,"stimulus":"audio/actual/s4-imitation-10bis_jenseigne_beaucoup-0_cut1norm.mp3","button_pressed":"0","test_part":"test","phrase":"10bis","condition":"imitation","subject":"s4","trial_type":"audio-button-response","trial_index":12,"time_elapsed":38166,"internal_node_id":"0.0-1.0-0.5"},{"rt":3703,"stimulus":"audio/actual/s7-guide-10_jean_saigne_beaucoup.mp3","button_pressed":"0","test_part":"test","phrase":"10","condition":"guide","subject":"s7","trial_type":"audio-button-response","trial_index":14,"time_elapsed":42430,"internal_node_id":"0.0-1.0-0.6"},{"rt":2372,"stimulus":"audio/actual/s1-guide-10_jean_saigne_beaucoup.mp3","button_pressed":"1","test_part":"test","phrase":"10","condition":"guide","subject":"s1","trial_type":"audio-button-response","trial_index":16,"time_elapsed":45571,"internal_node_id":"0.0-1.0-0.7"},{"rt":2069,"stimulus":"audio/actual/s8-imitation-10bis_jenseigne_beaucoup-11_cut1norm.mp3","button_pressed":"1","test_part":"test","phrase":"10bis","condition":"imitation","subject":"s8","trial_type":"audio-button-response","trial_index":18,"time_elapsed":48775,"internal_node_id":"0.0-1.0-0.8"},{"rt":5747,"stimulus":"audio/actual/s1-imitation-10bis_jenseigne_beaucoup-10_cut1norm.mp3","button_pressed":"2","test_part":"test","phrase":"10bis","condition":"imitation","subject":"s1","trial_type":"audio-button-response","trial_index":20,"time_elapsed":55442,"internal_node_id":"0.0-1.0-0.9"},{"rt":2754,"stimulus":"audio/actual/s1-imitation-10bis_jenseigne_beaucoup-10_cut1norm.mp3","button_pressed":"0","test_part":"test","phrase":"10bis","condition":"imitation","subject":"s1","trial_type":"audio-button-response","trial_index":21,"time_elapsed":58197,"internal_node_id":"0.0-1.0-1.9-0.9"},{"rt":3292.9999999999927,"stimulus":"audio/actual/s9-lecture-10_jean_saigne_beaucoup-3_cut1norm.mp3","button_pressed":"0","test_part":"test","phrase":"10","condition":"lecture","subject":"s9","trial_type":"audio-button-response","trial_index":23,"time_elapsed":62293,"internal_node_id":"0.0-1.0-0.10"},{"rt":5151,"stimulus":"audio/actual/s6-blind-10bis_jenseigne_beaucoup.mp3","button_pressed":"2","test_part":"test","phrase":"10bis","condition":"blind","subject":"s6","trial_type":"audio-button-response","trial_index":25,"time_elapsed":68162,"internal_node_id":"0.0-1.0-0.11"},{"rt":1992.0000000000146,"stimulus":"audio/actual/s6-blind-10bis_jenseigne_beaucoup.mp3","button_pressed":"0","test_part":"test","phrase":"10bis","condition":"blind","subject":"s6","trial_type":"audio-button-response","trial_index":26,"time_elapsed":70155,"internal_node_id":"0.0-1.0-1.11-0.11"},{"rt":3973,"stimulus":"audio/actual/s10-blind-10_jean_saigne_beaucoup.mp3","button_pressed":"1","test_part":"test","phrase":"10","condition":"blind","subject":"s10","trial_type":"audio-button-response","trial_index":28,"time_elapsed":74946,"internal_node_id":"0.0-1.0-0.12"},{"rt":6540,"stimulus":"audio/actual/s9-imitation-10bis_jenseigne_beaucoup-5_cut1norm.mp3","button_pressed":"2","test_part":"test","phrase":"10bis","condition":"imitation","subject":"s9","trial_type":"audio-button-response","trial_index":30,"time_elapsed":82390,"internal_node_id":"0.0-1.0-0.13"},{"rt":1547.9999999999854,"stimulus":"audio/actual/s9-imitation-10bis_jenseigne_beaucoup-5_cut1norm.mp3","button_pressed":"1","test_part":"test","phrase":"10bis","condition":"imitation","subject":"s9","trial_type":"audio-button-response","trial_index":31,"time_elapsed":83938,"internal_node_id":"0.0-1.0-1.13-0.13"},{"rt":2499.0000000000146,"stimulus":"audio/actual/s5-lecture-10_jean_saigne_beaucoup-5_cut1norm.mp3","button_pressed":"0","test_part":"test","phrase":"10","condition":"lecture","subject":"s5","trial_type":"audio-button-response","trial_index":33,"time_elapsed":87135,"internal_node_id":"0.0-1.0-0.14"},{"rt":3100,"stimulus":"audio/actual/s2-imitation-10_jean_saigne_beaucoup-4_cut1norm.mp3","button_pressed":"0","test_part":"test","phrase":"10","condition":"imitation","subject":"s2","trial_type":"audio-button-response","trial_index":35,"time_elapsed":90845,"internal_node_id":"0.0-1.0-0.15"},{"rt":1912,"stimulus":"audio/actual/s6-imitation-10bis_jenseigne_beaucoup-4_cut1norm.mp3","button_pressed":"1","test_part":"test","phrase":"10bis","condition":"imitation","subject":"s6","trial_type":"audio-button-response","trial_index":37,"time_elapsed":93348,"internal_node_id":"0.0-1.0-0.16"},{"rt":2330.0000000000146,"stimulus":"audio/actual/s3-lecture-10_jean_saigne_beaucoup-2_cut1norm.mp3","button_pressed":"0","test_part":"test","phrase":"10","condition":"lecture","subject":"s3","trial_type":"audio-button-response","trial_index":39,"time_elapsed":96168,"internal_node_id":"0.0-1.0-0.17"},{"rt":2797,"stimulus":"audio/actual/s6-guide-10_jean_saigne_beaucoup.mp3","button_pressed":"1","test_part":"test","phrase":"10","condition":"guide","subject":"s6","trial_type":"audio-button-response","trial_index":41,"time_elapsed":99565,"internal_node_id":"0.0-1.0-0.18"},{"rt":5114,"stimulus":"audio/actual/s3-blind-10bis_jenseigne_beaucoup.mp3","button_pressed":"2","test_part":"test","phrase":"10bis","condition":"blind","subject":"s3","trial_type":"audio-button-response","trial_index":43,"time_elapsed":105946,"internal_node_id":"0.0-1.0-0.19"},{"rt":6628,"stimulus":"audio/actual/s3-blind-10bis_jenseigne_beaucoup.mp3","button_pressed":"0","test_part":"test","phrase":"10bis","condition":"blind","subject":"s3","trial_type":"audio-button-response","trial_index":44,"time_elapsed":112575,"internal_node_id":"0.0-1.0-1.19-0.19"},{"rt":1933,"stimulus":"audio/actual/s7-guide-10bis_jenseigne_beaucoup.mp3","button_pressed":"1","test_part":"test","phrase":"10bis","condition":"guide","subject":"s7","trial_type":"audio-button-response","trial_index":46,"time_elapsed":115178,"internal_node_id":"0.0-1.0-0.20"},{"rt":3451,"stimulus":"audio/actual/s8-blind-10bis_jenseigne_beaucoup.mp3","button_pressed":"1","test_part":"test","phrase":"10bis","condition":"blind","subject":"s8","trial_type":"audio-button-response","trial_index":48,"time_elapsed":119285,"internal_node_id":"0.0-1.0-0.21"},{"rt":3763,"stimulus":"audio/actual/s5-guide-10_jean_saigne_beaucoup.mp3","button_pressed":"0","test_part":"test","phrase":"10","condition":"guide","subject":"s5","trial_type":"audio-button-response","trial_index":50,"time_elapsed":124085,"internal_node_id":"0.0-1.0-0.22"},{"rt":2477,"stimulus":"audio/actual/s3-imitation-10_jean_saigne_beaucoup-2_cut1norm.mp3","button_pressed":"0","test_part":"test","phrase":"10","condition":"imitation","subject":"s3","trial_type":"audio-button-response","trial_index":52,"time_elapsed":127213,"internal_node_id":"0.0-1.0-0.23"},{"rt":2237,"stimulus":"audio/actual/s2-lecture-10bis_jenseigne_beaucoup-6_cut1norm.mp3","button_pressed":"1","test_part":"test","phrase":"10bis","condition":"lecture","subject":"s2","trial_type":"audio-button-response","trial_index":54,"time_elapsed":130312,"internal_node_id":"0.0-1.0-0.24"},{"rt":3083,"stimulus":"audio/actual/s10-blind-10bis_jenseigne_beaucoup.mp3","button_pressed":"1","test_part":"test","phrase":"10bis","condition":"blind","subject":"s10","trial_type":"audio-button-response","trial_index":56,"time_elapsed":133922,"internal_node_id":"0.0-1.0-0.25"},{"rt":2575,"stimulus":"audio/actual/s7-imitation-10bis_jenseigne_beaucoup-2_cut1norm.mp3","button_pressed":"1","test_part":"test","phrase":"10bis","condition":"imitation","subject":"s7","trial_type":"audio-button-response","trial_index":58,"time_elapsed":137167,"internal_node_id":"0.0-1.0-0.26"},{"rt":2093,"stimulus":"audio/actual/s9-blind-10bis_jenseigne_beaucoup.mp3","button_pressed":"1","test_part":"test","phrase":"10bis","condition":"blind","subject":"s9","trial_type":"audio-button-response","trial_index":60,"time_elapsed":139754,"internal_node_id":"0.0-1.0-0.27"},{"rt":4804,"stimulus":"audio/actual/s4-guide-10bis_jenseigne_beaucoup.mp3","button_pressed":"0","test_part":"test","phrase":"10bis","condition":"guide","subject":"s4","trial_type":"audio-button-response","trial_index":62,"time_elapsed":145212,"internal_node_id":"0.0-1.0-0.28"},{"rt":2777,"stimulus":"audio/actual/s2-blind-10bis_jenseigne_beaucoup.mp3","button_pressed":"2","test_part":"test","phrase":"10bis","condition":"blind","subject":"s2","trial_type":"audio-button-response","trial_index":64,"time_elapsed":148586,"internal_node_id":"0.0-1.0-0.29"},{"rt":1732,"stimulus":"audio/actual/s2-blind-10bis_jenseigne_beaucoup.mp3","button_pressed":"1","test_part":"test","phrase":"10bis","condition":"blind","subject":"s2","trial_type":"audio-button-response","trial_index":65,"time_elapsed":150319,"internal_node_id":"0.0-1.0-1.29-0.29"},{"rt":3976,"stimulus":"audio/actual/s1-lecture-10_jean_saigne_beaucoup-2_cut1norm.mp3","button_pressed":"2","test_part":"test","phrase":"10","condition":"lecture","subject":"s1","trial_type":"audio-button-response","trial_index":67,"time_elapsed":155240,"internal_node_id":"0.0-1.0-0.30"},{"rt":1764,"stimulus":"audio/actual/s1-lecture-10_jean_saigne_beaucoup-2_cut1norm.mp3","button_pressed":"1","test_part":"test","phrase":"10","condition":"lecture","subject":"s1","trial_type":"audio-button-response","trial_index":68,"time_elapsed":157005,"internal_node_id":"0.0-1.0-1.30-0.30"},{"rt":4354,"stimulus":"audio/actual/s3-imitation-10bis_jenseigne_beaucoup-3_cut1norm.mp3","button_pressed":"1","test_part":"test","phrase":"10bis","condition":"imitation","subject":"s3","trial_type":"audio-button-response","trial_index":70,"time_elapsed":161885,"internal_node_id":"0.0-1.0-0.31"},{"rt":2330.999999999971,"stimulus":"audio/actual/s2-blind-10_jean_saigne_beaucoup.mp3","button_pressed":"1","test_part":"test","phrase":"10","condition":"blind","subject":"s2","trial_type":"audio-button-response","trial_index":72,"time_elapsed":164809,"internal_node_id":"0.0-1.0-0.32"},{"rt":4395,"stimulus":"audio/actual/s1-blind-10_jean_saigne_beaucoup.mp3","button_pressed":"2","test_part":"test","phrase":"10","condition":"blind","subject":"s1","trial_type":"audio-button-response","trial_index":74,"time_elapsed":170452,"internal_node_id":"0.0-1.0-0.33"},{"rt":4061,"stimulus":"audio/actual/s1-blind-10_jean_saigne_beaucoup.mp3","button_pressed":"0","test_part":"test","phrase":"10","condition":"blind","subject":"s1","trial_type":"audio-button-response","trial_index":75,"time_elapsed":174514,"internal_node_id":"0.0-1.0-1.33-0.33"},{"rt":4735,"stimulus":"audio/actual/s5-lecture-10bis_jenseigne_beaucoup-4_cut1norm.mp3","button_pressed":"2","test_part":"test","phrase":"10bis","condition":"lecture","subject":"s5","trial_type":"audio-button-response","trial_index":77,"time_elapsed":179916,"internal_node_id":"0.0-1.0-0.34"},{"rt":1386,"stimulus":"audio/actual/s5-lecture-10bis_jenseigne_beaucoup-4_cut1norm.mp3","button_pressed":"1","test_part":"test","phrase":"10bis","condition":"lecture","subject":"s5","trial_type":"audio-button-response","trial_index":78,"time_elapsed":181303,"internal_node_id":"0.0-1.0-1.34-0.34"},{"rt":4010,"stimulus":"audio/actual/s1-imitation-10_jean_saigne_beaucoup-11_cut1norm.mp3","button_pressed":"0","test_part":"test","phrase":"10","condition":"imitation","subject":"s1","trial_type":"audio-button-response","trial_index":80,"time_elapsed":185936,"internal_node_id":"0.0-1.0-0.35"},{"rt":2382,"stimulus":"audio/actual/s9-guide-10_jean_saigne_beaucoup.mp3","button_pressed":"0","test_part":"test","phrase":"10","condition":"guide","subject":"s9","trial_type":"audio-button-response","trial_index":82,"time_elapsed":188876,"internal_node_id":"0.0-1.0-0.36"},{"rt":1793,"stimulus":"audio/actual/s8-blind-10_jean_saigne_beaucoup.mp3","button_pressed":"1","test_part":"test","phrase":"10","condition":"blind","subject":"s8","trial_type":"audio-button-response","trial_index":84,"time_elapsed":191239,"internal_node_id":"0.0-1.0-0.37"},{"rt":5031.000000000029,"stimulus":"audio/actual/s6-imitation-10_jean_saigne_beaucoup-5_cut1norm.mp3","button_pressed":"2","test_part":"test","phrase":"10","condition":"imitation","subject":"s6","trial_type":"audio-button-response","trial_index":86,"time_elapsed":196890,"internal_node_id":"0.0-1.0-0.38"},{"rt":24495,"stimulus":"audio/actual/s6-imitation-10_jean_saigne_beaucoup-5_cut1norm.mp3","button_pressed":"0","test_part":"test","phrase":"10","condition":"imitation","subject":"s6","trial_type":"audio-button-response","trial_index":87,"time_elapsed":221386,"internal_node_id":"0.0-1.0-1.38-0.38"},{"rt":2690.999999999971,"stimulus":"audio/actual/s1-lecture-10bis_jenseigne_beaucoup-3_cut1norm.mp3","button_pressed":"1","test_part":"test","phrase":"10bis","condition":"lecture","subject":"s1","trial_type":"audio-button-response","trial_index":89,"time_elapsed":224743,"internal_node_id":"0.0-1.0-0.39"},{"rt":3567,"stimulus":"audio/actual/s8-lecture-10bis_jenseigne_beaucoup-11_cut1norm.mp3","button_pressed":"1","test_part":"test","phrase":"10bis","condition":"lecture","subject":"s8","trial_type":"audio-button-response","trial_index":91,"time_elapsed":228869,"internal_node_id":"0.0-1.0-0.40"},{"rt":2443,"stimulus":"audio/actual/s5-guide-10bis_jenseigne_beaucoup.mp3","button_pressed":"2","test_part":"test","phrase":"10bis","condition":"guide","subject":"s5","trial_type":"audio-button-response","trial_index":93,"time_elapsed":232098,"internal_node_id":"0.0-1.0-0.41"},{"rt":1281.999999999971,"stimulus":"audio/actual/s5-guide-10bis_jenseigne_beaucoup.mp3","button_pressed":"1","test_part":"test","phrase":"10bis","condition":"guide","subject":"s5","trial_type":"audio-button-response","trial_index":94,"time_elapsed":233381,"internal_node_id":"0.0-1.0-1.41-0.41"},{"rt":3509,"stimulus":"audio/actual/s10-imitation-10_jean_saigne_beaucoup-11_cut1norm.mp3","button_pressed":"0","test_part":"test","phrase":"10","condition":"imitation","subject":"s10","trial_type":"audio-button-response","trial_index":96,"time_elapsed":237709,"internal_node_id":"0.0-1.0-0.42"},{"rt":3078,"stimulus":"audio/actual/s5-imitation-10_jean_saigne_beaucoup-10_cut1norm.mp3","button_pressed":"2","test_part":"test","phrase":"10","condition":"imitation","subject":"s5","trial_type":"audio-button-response","trial_index":98,"time_elapsed":241508,"internal_node_id":"0.0-1.0-0.43"},{"rt":1903,"stimulus":"audio/actual/s5-imitation-10_jean_saigne_beaucoup-10_cut1norm.mp3","button_pressed":"0","test_part":"test","phrase":"10","condition":"imitation","subject":"s5","trial_type":"audio-button-response","trial_index":99,"time_elapsed":243413,"internal_node_id":"0.0-1.0-1.43-0.43"},{"rt":4777,"stimulus":"audio/actual/s6-guide-10bis_jenseigne_beaucoup.mp3","button_pressed":"1","test_part":"test","phrase":"10bis","condition":"guide","subject":"s6","trial_type":"audio-button-response","trial_index":101,"time_elapsed":249096,"internal_node_id":"0.0-1.0-0.44"},{"rt":2357,"stimulus":"audio/actual/s1-blind-10bis_jenseigne_beaucoup.mp3","button_pressed":"1","test_part":"test","phrase":"10bis","condition":"blind","subject":"s1","trial_type":"audio-button-response","trial_index":103,"time_elapsed":252212,"internal_node_id":"0.0-1.0-0.45"},{"rt":2058.999999999971,"stimulus":"audio/actual/s7-blind-10_jean_saigne_beaucoup.mp3","button_pressed":"1","test_part":"test","phrase":"10","condition":"blind","subject":"s7","trial_type":"audio-button-response","trial_index":105,"time_elapsed":254923,"internal_node_id":"0.0-1.0-0.46"},{"rt":2871,"stimulus":"audio/actual/s4-lecture-10_jean_saigne_beaucoup-1_cut1norm.mp3","button_pressed":"0","test_part":"test","phrase":"10","condition":"lecture","subject":"s4","trial_type":"audio-button-response","trial_index":107,"time_elapsed":258320,"internal_node_id":"0.0-1.0-0.47"},{"rt":1795,"stimulus":"audio/actual/s7-blind-10bis_jenseigne_beaucoup.mp3","button_pressed":"1","test_part":"test","phrase":"10bis","condition":"blind","subject":"s7","trial_type":"audio-button-response","trial_index":109,"time_elapsed":260834,"internal_node_id":"0.0-1.0-0.48"},{"rt":2958,"stimulus":"audio/actual/s10-lecture-10_jean_saigne_beaucoup-10_cut1norm.mp3","button_pressed":"1","test_part":"test","phrase":"10","condition":"lecture","subject":"s10","trial_type":"audio-button-response","trial_index":111,"time_elapsed":264339,"internal_node_id":"0.0-1.0-0.49"},{"rt":3798.999999999942,"stimulus":"audio/actual/s7-lecture-10_jean_saigne_beaucoup-8_cut1norm.mp3","button_pressed":"2","test_part":"test","phrase":"10","condition":"lecture","subject":"s7","trial_type":"audio-button-response","trial_index":113,"time_elapsed":268706,"internal_node_id":"0.0-1.0-0.50"},{"rt":13918,"stimulus":"audio/actual/s7-lecture-10_jean_saigne_beaucoup-8_cut1norm.mp3","button_pressed":"0","test_part":"test","phrase":"10","condition":"lecture","subject":"s7","trial_type":"audio-button-response","trial_index":114,"time_elapsed":282626,"internal_node_id":"0.0-1.0-1.50-0.50"},{"rt":3158,"stimulus":"audio/actual/s6-blind-10_jean_saigne_beaucoup.mp3","button_pressed":"0","test_part":"test","phrase":"10","condition":"blind","subject":"s6","trial_type":"audio-button-response","trial_index":116,"time_elapsed":286391,"internal_node_id":"0.0-1.0-0.51"},{"rt":4728,"stimulus":"audio/actual/s4-blind-10_jean_saigne_beaucoup.mp3","button_pressed":"2","test_part":"test","phrase":"10","condition":"blind","subject":"s4","trial_type":"audio-button-response","trial_index":118,"time_elapsed":291617,"internal_node_id":"0.0-1.0-0.52"},{"rt":4213.000000000058,"stimulus":"audio/actual/s4-blind-10_jean_saigne_beaucoup.mp3","button_pressed":"1","test_part":"test","phrase":"10","condition":"blind","subject":"s4","trial_type":"audio-button-response","trial_index":119,"time_elapsed":295831,"internal_node_id":"0.0-1.0-1.52-0.52"},{"rt":5574,"stimulus":"audio/actual/s6-lecture-10bis_jenseigne_beaucoup-0_cut1norm.mp3","button_pressed":"2","test_part":"test","phrase":"10bis","condition":"lecture","subject":"s6","trial_type":"audio-button-response","trial_index":121,"time_elapsed":301979,"internal_node_id":"0.0-1.0-0.53"},{"rt":6253.999999999942,"stimulus":"audio/actual/s6-lecture-10bis_jenseigne_beaucoup-0_cut1norm.mp3","button_pressed":"1","test_part":"test","phrase":"10bis","condition":"lecture","subject":"s6","trial_type":"audio-button-response","trial_index":122,"time_elapsed":308235,"internal_node_id":"0.0-1.0-1.53-0.53"},{"rt":6710,"stimulus":"audio/actual/s10-guide-10_jean_saigne_beaucoup.mp3","button_pressed":"0","test_part":"test","phrase":"10","condition":"guide","subject":"s10","trial_type":"audio-button-response","trial_index":124,"time_elapsed":315777,"internal_node_id":"0.0-1.0-0.54"},{"rt":2279,"stimulus":"audio/actual/s6-lecture-10_jean_saigne_beaucoup-1_cut1norm.mp3","button_pressed":"0","test_part":"test","phrase":"10","condition":"lecture","subject":"s6","trial_type":"audio-button-response","trial_index":126,"time_elapsed":319198,"internal_node_id":"0.0-1.0-0.55"},{"rt":3327,"stimulus":"audio/actual/s3-guide-10_jean_saigne_beaucoup.mp3","button_pressed":"2","test_part":"test","phrase":"10","condition":"guide","subject":"s3","trial_type":"audio-button-response","trial_index":128,"time_elapsed":323156,"internal_node_id":"0.0-1.0-0.56"},{"rt":5037,"stimulus":"audio/actual/s3-guide-10_jean_saigne_beaucoup.mp3","button_pressed":"0","test_part":"test","phrase":"10","condition":"guide","subject":"s3","trial_type":"audio-button-response","trial_index":129,"time_elapsed":328193,"internal_node_id":"0.0-1.0-1.56-0.56"},{"rt":3138,"stimulus":"audio/actual/s1-guide-10bis_jenseigne_beaucoup.mp3","button_pressed":"1","test_part":"test","phrase":"10bis","condition":"guide","subject":"s1","trial_type":"audio-button-response","trial_index":131,"time_elapsed":332087,"internal_node_id":"0.0-1.0-0.57"},{"rt":6436,"stimulus":"audio/actual/s4-lecture-10bis_jenseigne_beaucoup-0_cut1norm.mp3","button_pressed":"2","test_part":"test","phrase":"10bis","condition":"lecture","subject":"s4","trial_type":"audio-button-response","trial_index":133,"time_elapsed":339157,"internal_node_id":"0.0-1.0-0.58"},{"rt":3669,"stimulus":"audio/actual/s4-lecture-10bis_jenseigne_beaucoup-0_cut1norm.mp3","button_pressed":"1","test_part":"test","phrase":"10bis","condition":"lecture","subject":"s4","trial_type":"audio-button-response","trial_index":134,"time_elapsed":342827,"internal_node_id":"0.0-1.0-1.58-0.58"},{"rt":3996,"stimulus":"audio/actual/s9-imitation-10_jean_saigne_beaucoup-4_cut1norm.mp3","button_pressed":"0","test_part":"test","phrase":"10","condition":"imitation","subject":"s9","trial_type":"audio-button-response","trial_index":136,"time_elapsed":347402,"internal_node_id":"0.0-1.0-0.59"},{"rt":2106,"stimulus":"audio/actual/s2-imitation-10bis_jenseigne_beaucoup-5_cut1norm.mp3","button_pressed":"1","test_part":"test","phrase":"10bis","condition":"imitation","subject":"s2","trial_type":"audio-button-response","trial_index":138,"time_elapsed":350238,"internal_node_id":"0.0-1.0-0.60"},{"rt":3744,"stimulus":"audio/actual/s8-guide-10_jean_saigne_beaucoup.mp3","button_pressed":"0","test_part":"test","phrase":"10","condition":"guide","subject":"s8","trial_type":"audio-button-response","trial_index":140,"time_elapsed":354662,"internal_node_id":"0.0-1.0-0.61"},{"rt":3788,"stimulus":"audio/actual/s10-lecture-10bis_jenseigne_beaucoup-11_cut1norm.mp3","button_pressed":"1","test_part":"test","phrase":"10bis","condition":"lecture","subject":"s10","trial_type":"audio-button-response","trial_index":142,"time_elapsed":359086,"internal_node_id":"0.0-1.0-0.62"},{"rt":2560,"stimulus":"audio/actual/s8-imitation-10_jean_saigne_beaucoup-10_cut1norm.mp3","button_pressed":"2","test_part":"test","phrase":"10","condition":"imitation","subject":"s8","trial_type":"audio-button-response","trial_index":144,"time_elapsed":362337,"internal_node_id":"0.0-1.0-0.63"},{"rt":1523,"stimulus":"audio/actual/s8-imitation-10_jean_saigne_beaucoup-10_cut1norm.mp3","button_pressed":"0","test_part":"test","phrase":"10","condition":"imitation","subject":"s8","trial_type":"audio-button-response","trial_index":145,"time_elapsed":363861,"internal_node_id":"0.0-1.0-1.63-0.63"},{"rt":2575,"stimulus":"audio/actual/s5-blind-10_jean_saigne_beaucoup.mp3","button_pressed":"2","test_part":"test","phrase":"10","condition":"blind","subject":"s5","trial_type":"audio-button-response","trial_index":147,"time_elapsed":367266,"internal_node_id":"0.0-1.0-0.64"},{"rt":5749,"stimulus":"audio/actual/s5-blind-10_jean_saigne_beaucoup.mp3","button_pressed":"1","test_part":"test","phrase":"10","condition":"blind","subject":"s5","trial_type":"audio-button-response","trial_index":148,"time_elapsed":373016,"internal_node_id":"0.0-1.0-1.64-0.64"},{"rt":3753,"stimulus":"audio/actual/s9-guide-10bis_jenseigne_beaucoup.mp3","button_pressed":"1","test_part":"test","phrase":"10bis","condition":"guide","subject":"s9","trial_type":"audio-button-response","trial_index":150,"time_elapsed":377625,"internal_node_id":"0.0-1.0-0.65"},{"rt":3761,"stimulus":"audio/actual/s2-guide-10bis_jenseigne_beaucoup.mp3","button_pressed":"2","test_part":"test","phrase":"10bis","condition":"guide","subject":"s2","trial_type":"audio-button-response","trial_index":152,"time_elapsed":382000,"internal_node_id":"0.0-1.0-0.66"},{"rt":1976,"stimulus":"audio/actual/s2-guide-10bis_jenseigne_beaucoup.mp3","button_pressed":"0","test_part":"test","phrase":"10bis","condition":"guide","subject":"s2","trial_type":"audio-button-response","trial_index":153,"time_elapsed":383978,"internal_node_id":"0.0-1.0-1.66-0.66"},{"rt":2085.000000000058,"stimulus":"audio/actual/s8-lecture-10_jean_saigne_beaucoup-10_cut1norm.mp3","button_pressed":"0","test_part":"test","phrase":"10","condition":"lecture","subject":"s8","trial_type":"audio-button-response","trial_index":155,"time_elapsed":386785,"internal_node_id":"0.0-1.0-0.67"},{"rt":2183.000000000058,"stimulus":"audio/actual/s9-lecture-10bis_jenseigne_beaucoup-2_cut1norm.mp3","button_pressed":"0","test_part":"test","phrase":"10bis","condition":"lecture","subject":"s9","trial_type":"audio-button-response","trial_index":157,"time_elapsed":389661,"internal_node_id":"0.0-1.0-0.68"},{"rt":3003,"stimulus":"audio/actual/s3-guide-10bis_jenseigne_beaucoup.mp3","button_pressed":"1","test_part":"test","phrase":"10bis","condition":"guide","subject":"s3","trial_type":"audio-button-response","trial_index":159,"time_elapsed":394999,"internal_node_id":"0.0-1.0-0.69"},{"rt":5377,"stimulus":"audio/actual/s4-guide-10_jean_saigne_beaucoup.mp3","button_pressed":"2","test_part":"test","phrase":"10","condition":"guide","subject":"s4","trial_type":"audio-button-response","trial_index":161,"time_elapsed":401225,"internal_node_id":"0.0-1.0-0.70"},{"rt":5484.999999999942,"stimulus":"audio/actual/s4-guide-10_jean_saigne_beaucoup.mp3","button_pressed":"0","test_part":"test","phrase":"10","condition":"guide","subject":"s4","trial_type":"audio-button-response","trial_index":162,"time_elapsed":406711,"internal_node_id":"0.0-1.0-1.70-0.70"},{"rt":6011,"stimulus":"audio/actual/s3-lecture-10bis_jenseigne_beaucoup-3_cut1norm.mp3","button_pressed":"2","test_part":"test","phrase":"10bis","condition":"lecture","subject":"s3","trial_type":"audio-button-response","trial_index":164,"time_elapsed":413428,"internal_node_id":"0.0-1.0-0.71"},{"rt":1820,"stimulus":"audio/actual/s3-lecture-10bis_jenseigne_beaucoup-3_cut1norm.mp3","button_pressed":"1","test_part":"test","phrase":"10bis","condition":"lecture","subject":"s3","trial_type":"audio-button-response","trial_index":165,"time_elapsed":415249,"internal_node_id":"0.0-1.0-1.71-0.71"},{"rt":1621,"stimulus":"audio/actual/s10-imitation-10bis_jenseigne_beaucoup-10_cut1norm.mp3","button_pressed":"1","test_part":"test","phrase":"10bis","condition":"imitation","subject":"s10","trial_type":"audio-button-response","trial_index":167,"time_elapsed":418517,"internal_node_id":"0.0-1.0-0.72"},{"rt":3321,"stimulus":"audio/actual/s4-blind-10bis_jenseigne_beaucoup.mp3","button_pressed":"0","test_part":"test","phrase":"10bis","condition":"blind","subject":"s4","trial_type":"audio-button-response","trial_index":169,"time_elapsed":422331,"internal_node_id":"0.0-1.0-0.73"},{"rt":2157,"stimulus":"audio/actual/s9-blind-10_jean_saigne_beaucoup.mp3","button_pressed":"0","test_part":"test","phrase":"10","condition":"blind","subject":"s9","trial_type":"audio-button-response","trial_index":171,"time_elapsed":425622,"internal_node_id":"0.0-1.0-0.74"},{"rt":3713,"stimulus":"audio/actual/s2-guide-10_jean_saigne_beaucoup.mp3","button_pressed":"0","test_part":"test","phrase":"10","condition":"guide","subject":"s2","trial_type":"audio-button-response","trial_index":173,"time_elapsed":429826,"internal_node_id":"0.0-1.0-0.75"},{"rt":3874,"stimulus":"audio/actual/s7-imitation-10_jean_saigne_beaucoup-3_cut1norm.mp3","button_pressed":"2","test_part":"test","phrase":"10","condition":"imitation","subject":"s7","trial_type":"audio-button-response","trial_index":175,"time_elapsed":434225,"internal_node_id":"0.0-1.0-0.76"},{"rt":5834,"stimulus":"audio/actual/s7-imitation-10_jean_saigne_beaucoup-3_cut1norm.mp3","button_pressed":"0","test_part":"test","phrase":"10","condition":"imitation","subject":"s7","trial_type":"audio-button-response","trial_index":176,"time_elapsed":440060,"internal_node_id":"0.0-1.0-1.76-0.76"},{"rt":2743,"stimulus":"audio/actual/s4-imitation-10_jean_saigne_beaucoup-1_cut1norm.mp3","button_pressed":"0","test_part":"test","phrase":"10","condition":"imitation","subject":"s4","trial_type":"audio-button-response","trial_index":178,"time_elapsed":443362,"internal_node_id":"0.0-1.0-0.77"},{"rt":5194.000000000058,"stimulus":"audio/actual/s5-blind-10bis_jenseigne_beaucoup.mp3","button_pressed":"2","test_part":"test","phrase":"10bis","condition":"blind","subject":"s5","trial_type":"audio-button-response","trial_index":180,"time_elapsed":449110,"internal_node_id":"0.0-1.0-0.78"},{"rt":1392,"stimulus":"audio/actual/s5-blind-10bis_jenseigne_beaucoup.mp3","button_pressed":"0","test_part":"test","phrase":"10bis","condition":"blind","subject":"s5","trial_type":"audio-button-response","trial_index":181,"time_elapsed":450502,"internal_node_id":"0.0-1.0-1.78-0.78"},{"rt":1401,"stimulus":"audio/actual/s8-guide-10bis_jenseigne_beaucoup.mp3","button_pressed":"1","test_part":"test","phrase":"10bis","condition":"guide","subject":"s8","trial_type":"audio-button-response","trial_index":183,"time_elapsed":452516,"internal_node_id":"0.0-1.0-0.79"}]