[{"rt":3503.904999997758,"stimulus":"audio/actual/s3-blind-10_jean_saigne_beaucoup.mp3","button_pressed":"0","test_part":"test","phrase":"10","condition":"blind","subject":"s3","trial_type":"audio-button-response","trial_index":1,"time_elapsed":5737,"internal_node_id":"0.0-1.0-0.0"},{"rt":2392.970000000787,"stimulus":"audio/actual/s10-imitation-10bis_jenseigne_beaucoup-10_cut1norm.mp3","button_pressed":"0","test_part":"test","phrase":"10bis","condition":"imitation","subject":"s10","trial_type":"audio-button-response","trial_index":3,"time_elapsed":9456,"internal_node_id":"0.0-1.0-0.1"},{"rt":2501.9800000009127,"stimulus":"audio/actual/s3-lecture-10_jean_saigne_beaucoup-2_cut1norm.mp3","button_pressed":"0","test_part":"test","phrase":"10","condition":"lecture","subject":"s3","trial_type":"audio-button-response","trial_index":5,"time_elapsed":12742,"internal_node_id":"0.0-1.0-0.2"},{"rt":1634.5150000015565,"stimulus":"audio/actual/s10-lecture-10_jean_saigne_beaucoup-10_cut1norm.mp3","button_pressed":"1","test_part":"test","phrase":"10","condition":"lecture","subject":"s10","trial_type":"audio-button-response","trial_index":7,"time_elapsed":15494,"internal_node_id":"0.0-1.0-0.3"},{"rt":2788.7599999994563,"stimulus":"audio/actual/s4-guide-10bis_jenseigne_beaucoup.mp3","button_pressed":"1","test_part":"test","phrase":"10bis","condition":"guide","subject":"s4","trial_type":"audio-button-response","trial_index":9,"time_elapsed":18929,"internal_node_id":"0.0-1.0-0.4"},{"rt":1611.6299999994226,"stimulus":"audio/actual/s1-imitation-10_jean_saigne_beaucoup-11_cut1norm.mp3","button_pressed":"0","test_part":"test","phrase":"10","condition":"imitation","subject":"s1","trial_type":"audio-button-response","trial_index":11,"time_elapsed":21734,"internal_node_id":"0.0-1.0-0.5"},{"rt":1762.3999999996158,"stimulus":"audio/actual/s9-lecture-10bis_jenseigne_beaucoup-2_cut1norm.mp3","button_pressed":"1","test_part":"test","phrase":"10bis","condition":"lecture","subject":"s9","trial_type":"audio-button-response","trial_index":13,"time_elapsed":24118,"internal_node_id":"0.0-1.0-0.6"},{"rt":1906.0300000019197,"stimulus":"audio/actual/s6-imitation-10_jean_saigne_beaucoup-5_cut1norm.mp3","button_pressed":"0","test_part":"test","phrase":"10","condition":"imitation","subject":"s6","trial_type":"audio-button-response","trial_index":15,"time_elapsed":27392,"internal_node_id":"0.0-1.0-0.7"},{"rt":2525.1600000010512,"stimulus":"audio/actual/s3-guide-10_jean_saigne_beaucoup.mp3","button_pressed":"0","test_part":"test","phrase":"10","condition":"guide","subject":"s3","trial_type":"audio-button-response","trial_index":17,"time_elapsed":30569,"internal_node_id":"0.0-1.0-0.8"},{"rt":1980.4750000002969,"stimulus":"audio/actual/s8-blind-10_jean_saigne_beaucoup.mp3","button_pressed":"1","test_part":"test","phrase":"10","condition":"blind","subject":"s8","trial_type":"audio-button-response","trial_index":19,"time_elapsed":33039,"internal_node_id":"0.0-1.0-0.9"},{"rt":2869.620000001305,"stimulus":"audio/actual/s7-guide-10_jean_saigne_beaucoup.mp3","button_pressed":"2","test_part":"test","phrase":"10","condition":"guide","subject":"s7","trial_type":"audio-button-response","trial_index":21,"time_elapsed":36554,"internal_node_id":"0.0-1.0-0.10"},{"rt":2070.064999999886,"stimulus":"audio/actual/s7-guide-10_jean_saigne_beaucoup.mp3","button_pressed":"1","test_part":"test","phrase":"10","condition":"guide","subject":"s7","trial_type":"audio-button-response","trial_index":22,"time_elapsed":38625,"internal_node_id":"0.0-1.0-1.10-0.10"},{"rt":1675.680000000284,"stimulus":"audio/actual/s8-imitation-10_jean_saigne_beaucoup-10_cut1norm.mp3","button_pressed":"0","test_part":"test","phrase":"10","condition":"imitation","subject":"s8","trial_type":"audio-button-response","trial_index":24,"time_elapsed":41207,"internal_node_id":"0.0-1.0-0.11"},{"rt":1793.8350000003993,"stimulus":"audio/actual/s7-imitation-10bis_jenseigne_beaucoup-2_cut1norm.mp3","button_pressed":"1","test_part":"test","phrase":"10bis","condition":"imitation","subject":"s7","trial_type":"audio-button-response","trial_index":26,"time_elapsed":43837,"internal_node_id":"0.0-1.0-0.12"},{"rt":2504.9849999995786,"stimulus":"audio/actual/s1-lecture-10bis_jenseigne_beaucoup-3_cut1norm.mp3","button_pressed":"1","test_part":"test","phrase":"10bis","condition":"lecture","subject":"s1","trial_type":"audio-button-response","trial_index":28,"time_elapsed":47773,"internal_node_id":"0.0-1.0-0.13"},{"rt":1711.475000000064,"stimulus":"audio/actual/s8-lecture-10_jean_saigne_beaucoup-10_cut1norm.mp3","button_pressed":"0","test_part":"test","phrase":"10","condition":"lecture","subject":"s8","trial_type":"audio-button-response","trial_index":30,"time_elapsed":50877,"internal_node_id":"0.0-1.0-0.14"},{"rt":6787.974999999278,"stimulus":"audio/actual/s1-guide-10_jean_saigne_beaucoup.mp3","button_pressed":"2","test_part":"test","phrase":"10","condition":"guide","subject":"s1","trial_type":"audio-button-response","trial_index":32,"time_elapsed":58319,"internal_node_id":"0.0-1.0-0.15"},{"rt":3243.4050000010757,"stimulus":"audio/actual/s1-guide-10_jean_saigne_beaucoup.mp3","button_pressed":"0","test_part":"test","phrase":"10","condition":"guide","subject":"s1","trial_type":"audio-button-response","trial_index":33,"time_elapsed":61565,"internal_node_id":"0.0-1.0-1.15-0.15"},{"rt":3281.5499999996973,"stimulus":"audio/actual/s4-imitation-10_jean_saigne_beaucoup-1_cut1norm.mp3","button_pressed":"0","test_part":"test","phrase":"10","condition":"imitation","subject":"s4","trial_type":"audio-button-response","trial_index":35,"time_elapsed":65538,"internal_node_id":"0.0-1.0-0.16"},{"rt":3508.379999999306,"stimulus":"audio/actual/s1-blind-10bis_jenseigne_beaucoup.mp3","button_pressed":"0","test_part":"test","phrase":"10bis","condition":"blind","subject":"s1","trial_type":"audio-button-response","trial_index":37,"time_elapsed":70352,"internal_node_id":"0.0-1.0-0.17"},{"rt":2692.364999998972,"stimulus":"audio/actual/s5-lecture-10_jean_saigne_beaucoup-5_cut1norm.mp3","button_pressed":"0","test_part":"test","phrase":"10","condition":"lecture","subject":"s5","trial_type":"audio-button-response","trial_index":39,"time_elapsed":73815,"internal_node_id":"0.0-1.0-0.18"},{"rt":2286.8300000009185,"stimulus":"audio/actual/s3-blind-10bis_jenseigne_beaucoup.mp3","button_pressed":"0","test_part":"test","phrase":"10bis","condition":"blind","subject":"s3","trial_type":"audio-button-response","trial_index":41,"time_elapsed":76696,"internal_node_id":"0.0-1.0-0.19"},{"rt":1867.3450000023877,"stimulus":"audio/actual/s7-lecture-10bis_jenseigne_beaucoup-9_cut1norm.mp3","button_pressed":"1","test_part":"test","phrase":"10bis","condition":"lecture","subject":"s7","trial_type":"audio-button-response","trial_index":43,"time_elapsed":79060,"internal_node_id":"0.0-1.0-0.20"},{"rt":2539.9799999977404,"stimulus":"audio/actual/s6-blind-10bis_jenseigne_beaucoup.mp3","button_pressed":"0","test_part":"test","phrase":"10bis","condition":"blind","subject":"s6","trial_type":"audio-button-response","trial_index":45,"time_elapsed":82214,"internal_node_id":"0.0-1.0-0.21"},{"rt":2699.059999999008,"stimulus":"audio/actual/s7-lecture-10_jean_saigne_beaucoup-8_cut1norm.mp3","button_pressed":"0","test_part":"test","phrase":"10","condition":"lecture","subject":"s7","trial_type":"audio-button-response","trial_index":47,"time_elapsed":85487,"internal_node_id":"0.0-1.0-0.22"},{"rt":2076.6849999999977,"stimulus":"audio/actual/s5-imitation-10_jean_saigne_beaucoup-10_cut1norm.mp3","button_pressed":"0","test_part":"test","phrase":"10","condition":"imitation","subject":"s5","trial_type":"audio-button-response","trial_index":49,"time_elapsed":88359,"internal_node_id":"0.0-1.0-0.23"},{"rt":2389.630000001489,"stimulus":"audio/actual/s1-imitation-10bis_jenseigne_beaucoup-10_cut1norm.mp3","button_pressed":"1","test_part":"test","phrase":"10bis","condition":"imitation","subject":"s1","trial_type":"audio-button-response","trial_index":51,"time_elapsed":91245,"internal_node_id":"0.0-1.0-0.24"},{"rt":3393.404999998893,"stimulus":"audio/actual/s4-blind-10_jean_saigne_beaucoup.mp3","button_pressed":"0","test_part":"test","phrase":"10","condition":"blind","subject":"s4","trial_type":"audio-button-response","trial_index":53,"time_elapsed":95349,"internal_node_id":"0.0-1.0-0.25"},{"rt":5530.745000000024,"stimulus":"audio/actual/s2-guide-10_jean_saigne_beaucoup.mp3","button_pressed":"2","test_part":"test","phrase":"10","condition":"guide","subject":"s2","trial_type":"audio-button-response","trial_index":55,"time_elapsed":101742,"internal_node_id":"0.0-1.0-0.26"},{"rt":2021.519999998418,"stimulus":"audio/actual/s2-guide-10_jean_saigne_beaucoup.mp3","button_pressed":"0","test_part":"test","phrase":"10","condition":"guide","subject":"s2","trial_type":"audio-button-response","trial_index":56,"time_elapsed":103766,"internal_node_id":"0.0-1.0-1.26-0.26"},{"rt":2043.630000000121,"stimulus":"audio/actual/s5-blind-10bis_jenseigne_beaucoup.mp3","button_pressed":"2","test_part":"test","phrase":"10bis","condition":"blind","subject":"s5","trial_type":"audio-button-response","trial_index":58,"time_elapsed":106384,"internal_node_id":"0.0-1.0-0.27"},{"rt":4091.505000000325,"stimulus":"audio/actual/s5-blind-10bis_jenseigne_beaucoup.mp3","button_pressed":"0","test_part":"test","phrase":"10bis","condition":"blind","subject":"s5","trial_type":"audio-button-response","trial_index":59,"time_elapsed":110477,"internal_node_id":"0.0-1.0-1.27-0.27"},{"rt":1634.2599999989034,"stimulus":"audio/actual/s9-blind-10bis_jenseigne_beaucoup.mp3","button_pressed":"1","test_part":"test","phrase":"10bis","condition":"blind","subject":"s9","trial_type":"audio-button-response","trial_index":61,"time_elapsed":112837,"internal_node_id":"0.0-1.0-0.28"},{"rt":1668.4199999981502,"stimulus":"audio/actual/s6-imitation-10bis_jenseigne_beaucoup-4_cut1norm.mp3","button_pressed":"1","test_part":"test","phrase":"10bis","condition":"imitation","subject":"s6","trial_type":"audio-button-response","trial_index":63,"time_elapsed":115402,"internal_node_id":"0.0-1.0-0.29"},{"rt":3532.64499999932,"stimulus":"audio/actual/s10-blind-10bis_jenseigne_beaucoup.mp3","button_pressed":"1","test_part":"test","phrase":"10bis","condition":"blind","subject":"s10","trial_type":"audio-button-response","trial_index":65,"time_elapsed":119813,"internal_node_id":"0.0-1.0-0.30"},{"rt":2216.5449999993143,"stimulus":"audio/actual/s8-imitation-10bis_jenseigne_beaucoup-11_cut1norm.mp3","button_pressed":"1","test_part":"test","phrase":"10bis","condition":"imitation","subject":"s8","trial_type":"audio-button-response","trial_index":67,"time_elapsed":123047,"internal_node_id":"0.0-1.0-0.31"},{"rt":1618.7449999997625,"stimulus":"audio/actual/s5-imitation-10bis_jenseigne_beaucoup-11_cut1norm.mp3","button_pressed":"1","test_part":"test","phrase":"10bis","condition":"imitation","subject":"s5","trial_type":"audio-button-response","trial_index":69,"time_elapsed":125223,"internal_node_id":"0.0-1.0-0.32"},{"rt":1610.964999999851,"stimulus":"audio/actual/s2-blind-10bis_jenseigne_beaucoup.mp3","button_pressed":"2","test_part":"test","phrase":"10bis","condition":"blind","subject":"s2","trial_type":"audio-button-response","trial_index":71,"time_elapsed":127484,"internal_node_id":"0.0-1.0-0.33"},{"rt":2815.9750000013446,"stimulus":"audio/actual/s2-blind-10bis_jenseigne_beaucoup.mp3","button_pressed":"0","test_part":"test","phrase":"10bis","condition":"blind","subject":"s2","trial_type":"audio-button-response","trial_index":72,"time_elapsed":130306,"internal_node_id":"0.0-1.0-1.33-0.33"},{"rt":4520.724999998492,"stimulus":"audio/actual/s5-guide-10_jean_saigne_beaucoup.mp3","button_pressed":"2","test_part":"test","phrase":"10","condition":"guide","subject":"s5","trial_type":"audio-button-response","trial_index":74,"time_elapsed":135550,"internal_node_id":"0.0-1.0-0.34"},{"rt":1723.7800000002608,"stimulus":"audio/actual/s5-guide-10_jean_saigne_beaucoup.mp3","button_pressed":"0","test_part":"test","phrase":"10","condition":"guide","subject":"s5","trial_type":"audio-button-response","trial_index":75,"time_elapsed":137280,"internal_node_id":"0.0-1.0-1.34-0.34"},{"rt":4646.095000000059,"stimulus":"audio/actual/s1-guide-10bis_jenseigne_beaucoup.mp3","button_pressed":"2","test_part":"test","phrase":"10bis","condition":"guide","subject":"s1","trial_type":"audio-button-response","trial_index":77,"time_elapsed":142519,"internal_node_id":"0.0-1.0-0.35"},{"rt":2205.390000002808,"stimulus":"audio/actual/s1-guide-10bis_jenseigne_beaucoup.mp3","button_pressed":"0","test_part":"test","phrase":"10bis","condition":"guide","subject":"s1","trial_type":"audio-button-response","trial_index":78,"time_elapsed":144728,"internal_node_id":"0.0-1.0-1.35-0.35"},{"rt":2269.159999999829,"stimulus":"audio/actual/s3-guide-10bis_jenseigne_beaucoup.mp3","button_pressed":"2","test_part":"test","phrase":"10bis","condition":"guide","subject":"s3","trial_type":"audio-button-response","trial_index":80,"time_elapsed":147989,"internal_node_id":"0.0-1.0-0.36"},{"rt":1826.6599999988102,"stimulus":"audio/actual/s3-guide-10bis_jenseigne_beaucoup.mp3","button_pressed":"0","test_part":"test","phrase":"10bis","condition":"guide","subject":"s3","trial_type":"audio-button-response","trial_index":81,"time_elapsed":149818,"internal_node_id":"0.0-1.0-1.36-0.36"},{"rt":2868.060000000696,"stimulus":"audio/actual/s2-blind-10_jean_saigne_beaucoup.mp3","button_pressed":"1","test_part":"test","phrase":"10","condition":"blind","subject":"s2","trial_type":"audio-button-response","trial_index":83,"time_elapsed":153258,"internal_node_id":"0.0-1.0-0.37"},{"rt":1744.220000000496,"stimulus":"audio/actual/s5-lecture-10bis_jenseigne_beaucoup-4_cut1norm.mp3","button_pressed":"0","test_part":"test","phrase":"10bis","condition":"lecture","subject":"s5","trial_type":"audio-button-response","trial_index":85,"time_elapsed":156525,"internal_node_id":"0.0-1.0-0.38"},{"rt":4449.805000000197,"stimulus":"audio/actual/s1-lecture-10_jean_saigne_beaucoup-2_cut1norm.mp3","button_pressed":"2","test_part":"test","phrase":"10","condition":"lecture","subject":"s1","trial_type":"audio-button-response","trial_index":87,"time_elapsed":161950,"internal_node_id":"0.0-1.0-0.39"},{"rt":3775.8599999979197,"stimulus":"audio/actual/s1-lecture-10_jean_saigne_beaucoup-2_cut1norm.mp3","button_pressed":"0","test_part":"test","phrase":"10","condition":"lecture","subject":"s1","trial_type":"audio-button-response","trial_index":88,"time_elapsed":165730,"internal_node_id":"0.0-1.0-1.39-0.39"},{"rt":1684.2099999994389,"stimulus":"audio/actual/s2-imitation-10_jean_saigne_beaucoup-4_cut1norm.mp3","button_pressed":"0","test_part":"test","phrase":"10","condition":"imitation","subject":"s2","trial_type":"audio-button-response","trial_index":90,"time_elapsed":168179,"internal_node_id":"0.0-1.0-0.40"},{"rt":1424.13999999917,"stimulus":"audio/actual/s8-lecture-10bis_jenseigne_beaucoup-11_cut1norm.mp3","button_pressed":"1","test_part":"test","phrase":"10bis","condition":"lecture","subject":"s8","trial_type":"audio-button-response","trial_index":92,"time_elapsed":170143,"internal_node_id":"0.0-1.0-0.41"},{"rt":3103.3749999987776,"stimulus":"audio/actual/s2-lecture-10bis_jenseigne_beaucoup-6_cut1norm.mp3","button_pressed":"0","test_part":"test","phrase":"10bis","condition":"lecture","subject":"s2","trial_type":"audio-button-response","trial_index":94,"time_elapsed":173819,"internal_node_id":"0.0-1.0-0.42"},{"rt":1544.965000000957,"stimulus":"audio/actual/s5-guide-10bis_jenseigne_beaucoup.mp3","button_pressed":"0","test_part":"test","phrase":"10bis","condition":"guide","subject":"s5","trial_type":"audio-button-response","trial_index":96,"time_elapsed":175931,"internal_node_id":"0.0-1.0-0.43"},{"rt":3156.684999998106,"stimulus":"audio/actual/s2-guide-10bis_jenseigne_beaucoup.mp3","button_pressed":"0","test_part":"test","phrase":"10bis","condition":"guide","subject":"s2","trial_type":"audio-button-response","trial_index":98,"time_elapsed":180068,"internal_node_id":"0.0-1.0-0.44"},{"rt":3468.844999999419,"stimulus":"audio/actual/s6-lecture-10bis_jenseigne_beaucoup-0_cut1norm.mp3","button_pressed":"0","test_part":"test","phrase":"10bis","condition":"lecture","subject":"s6","trial_type":"audio-button-response","trial_index":100,"time_elapsed":184587,"internal_node_id":"0.0-1.0-0.45"},{"rt":3184.9750000001222,"stimulus":"audio/actual/s9-guide-10_jean_saigne_beaucoup.mp3","button_pressed":"0","test_part":"test","phrase":"10","condition":"guide","subject":"s9","trial_type":"audio-button-response","trial_index":102,"time_elapsed":190444,"internal_node_id":"0.0-1.0-0.46"},{"rt":3371.7650000035064,"stimulus":"audio/actual/s10-guide-10_jean_saigne_beaucoup.mp3","button_pressed":"0","test_part":"test","phrase":"10","condition":"guide","subject":"s10","trial_type":"audio-button-response","trial_index":104,"time_elapsed":194381,"internal_node_id":"0.0-1.0-0.47"},{"rt":1737.5499999980093,"stimulus":"audio/actual/s5-blind-10_jean_saigne_beaucoup.mp3","button_pressed":"0","test_part":"test","phrase":"10","condition":"blind","subject":"s5","trial_type":"audio-button-response","trial_index":106,"time_elapsed":196886,"internal_node_id":"0.0-1.0-0.48"},{"rt":2206.429999998363,"stimulus":"audio/actual/s6-lecture-10_jean_saigne_beaucoup-1_cut1norm.mp3","button_pressed":"0","test_part":"test","phrase":"10","condition":"lecture","subject":"s6","trial_type":"audio-button-response","trial_index":108,"time_elapsed":199901,"internal_node_id":"0.0-1.0-0.49"},{"rt":4058.3999999980733,"stimulus":"audio/actual/s10-blind-10_jean_saigne_beaucoup.mp3","button_pressed":"2","test_part":"test","phrase":"10","condition":"blind","subject":"s10","trial_type":"audio-button-response","trial_index":110,"time_elapsed":204455,"internal_node_id":"0.0-1.0-0.50"},{"rt":3144.5350000030885,"stimulus":"audio/actual/s10-blind-10_jean_saigne_beaucoup.mp3","button_pressed":"1","test_part":"test","phrase":"10","condition":"blind","subject":"s10","trial_type":"audio-button-response","trial_index":111,"time_elapsed":207602,"internal_node_id":"0.0-1.0-1.50-0.50"},{"rt":2590.2050000004238,"stimulus":"audio/actual/s2-imitation-10bis_jenseigne_beaucoup-5_cut1norm.mp3","button_pressed":"0","test_part":"test","phrase":"10bis","condition":"imitation","subject":"s2","trial_type":"audio-button-response","trial_index":113,"time_elapsed":210737,"internal_node_id":"0.0-1.0-0.51"},{"rt":2007.0899999991525,"stimulus":"audio/actual/s10-lecture-10bis_jenseigne_beaucoup-11_cut1norm.mp3","button_pressed":"1","test_part":"test","phrase":"10bis","condition":"lecture","subject":"s10","trial_type":"audio-button-response","trial_index":115,"time_elapsed":213358,"internal_node_id":"0.0-1.0-0.52"},{"rt":1800.5499999999302,"stimulus":"audio/actual/s7-guide-10bis_jenseigne_beaucoup.mp3","button_pressed":"1","test_part":"test","phrase":"10bis","condition":"guide","subject":"s7","trial_type":"audio-button-response","trial_index":117,"time_elapsed":215691,"internal_node_id":"0.0-1.0-0.53"},{"rt":1739.8749999993015,"stimulus":"audio/actual/s10-guide-10bis_jenseigne_beaucoup.mp3","button_pressed":"0","test_part":"test","phrase":"10bis","condition":"guide","subject":"s10","trial_type":"audio-button-response","trial_index":119,"time_elapsed":218060,"internal_node_id":"0.0-1.0-0.54"},{"rt":2253.7799999990966,"stimulus":"audio/actual/s9-lecture-10_jean_saigne_beaucoup-3_cut1norm.mp3","button_pressed":"0","test_part":"test","phrase":"10","condition":"lecture","subject":"s9","trial_type":"audio-button-response","trial_index":121,"time_elapsed":223661,"internal_node_id":"0.0-1.0-0.55"},{"rt":2297.4300000023504,"stimulus":"audio/actual/s3-lecture-10bis_jenseigne_beaucoup-3_cut1norm.mp3","button_pressed":"0","test_part":"test","phrase":"10bis","condition":"lecture","subject":"s3","trial_type":"audio-button-response","trial_index":123,"time_elapsed":226804,"internal_node_id":"0.0-1.0-0.56"},{"rt":2597.975000000588,"stimulus":"audio/actual/s4-lecture-10bis_jenseigne_beaucoup-0_cut1norm.mp3","button_pressed":"0","test_part":"test","phrase":"10bis","condition":"lecture","subject":"s4","trial_type":"audio-button-response","trial_index":125,"time_elapsed":231180,"internal_node_id":"0.0-1.0-0.57"},{"rt":1517.7000000003318,"stimulus":"audio/actual/s8-blind-10bis_jenseigne_beaucoup.mp3","button_pressed":"1","test_part":"test","phrase":"10bis","condition":"blind","subject":"s8","trial_type":"audio-button-response","trial_index":127,"time_elapsed":233357,"internal_node_id":"0.0-1.0-0.58"},{"rt":3846.4750000021013,"stimulus":"audio/actual/s4-guide-10_jean_saigne_beaucoup.mp3","button_pressed":"2","test_part":"test","phrase":"10","condition":"guide","subject":"s4","trial_type":"audio-button-response","trial_index":129,"time_elapsed":238449,"internal_node_id":"0.0-1.0-0.59"},{"rt":2542.539999998553,"stimulus":"audio/actual/s4-guide-10_jean_saigne_beaucoup.mp3","button_pressed":"0","test_part":"test","phrase":"10","condition":"guide","subject":"s4","trial_type":"audio-button-response","trial_index":130,"time_elapsed":240994,"internal_node_id":"0.0-1.0-1.59-0.59"},{"rt":1831.3099999977567,"stimulus":"audio/actual/s6-guide-10bis_jenseigne_beaucoup.mp3","button_pressed":"1","test_part":"test","phrase":"10bis","condition":"guide","subject":"s6","trial_type":"audio-button-response","trial_index":132,"time_elapsed":248083,"internal_node_id":"0.0-1.0-0.60"},{"rt":3058.3999999980733,"stimulus":"audio/actual/s4-blind-10bis_jenseigne_beaucoup.mp3","button_pressed":"1","test_part":"test","phrase":"10bis","condition":"blind","subject":"s4","trial_type":"audio-button-response","trial_index":134,"time_elapsed":251982,"internal_node_id":"0.0-1.0-0.61"},{"rt":1720.8499999978812,"stimulus":"audio/actual/s9-guide-10bis_jenseigne_beaucoup.mp3","button_pressed":"1","test_part":"test","phrase":"10bis","condition":"guide","subject":"s9","trial_type":"audio-button-response","trial_index":136,"time_elapsed":254446,"internal_node_id":"0.0-1.0-0.62"},{"rt":1692.6199999979872,"stimulus":"audio/actual/s4-lecture-10_jean_saigne_beaucoup-1_cut1norm.mp3","button_pressed":"0","test_part":"test","phrase":"10","condition":"lecture","subject":"s4","trial_type":"audio-button-response","trial_index":138,"time_elapsed":256682,"internal_node_id":"0.0-1.0-0.63"},{"rt":1557.2849999989558,"stimulus":"audio/actual/s8-guide-10_jean_saigne_beaucoup.mp3","button_pressed":"0","test_part":"test","phrase":"10","condition":"guide","subject":"s8","trial_type":"audio-button-response","trial_index":140,"time_elapsed":258882,"internal_node_id":"0.0-1.0-0.64"},{"rt":2801.535000002361,"stimulus":"audio/actual/s9-blind-10_jean_saigne_beaucoup.mp3","button_pressed":"0","test_part":"test","phrase":"10","condition":"blind","subject":"s9","trial_type":"audio-button-response","trial_index":142,"time_elapsed":262613,"internal_node_id":"0.0-1.0-0.65"},{"rt":2130.1349999994272,"stimulus":"audio/actual/s3-imitation-10_jean_saigne_beaucoup-2_cut1norm.mp3","button_pressed":"0","test_part":"test","phrase":"10","condition":"imitation","subject":"s3","trial_type":"audio-button-response","trial_index":144,"time_elapsed":265318,"internal_node_id":"0.0-1.0-0.66"},{"rt":2576.2849999991595,"stimulus":"audio/actual/s1-blind-10_jean_saigne_beaucoup.mp3","button_pressed":"0","test_part":"test","phrase":"10","condition":"blind","subject":"s1","trial_type":"audio-button-response","trial_index":146,"time_elapsed":268580,"internal_node_id":"0.0-1.0-0.67"},{"rt":1712.4049999983981,"stimulus":"audio/actual/s7-blind-10_jean_saigne_beaucoup.mp3","button_pressed":"0","test_part":"test","phrase":"10","condition":"blind","subject":"s7","trial_type":"audio-button-response","trial_index":148,"time_elapsed":270893,"internal_node_id":"0.0-1.0-0.68"},{"rt":1611.895000001823,"stimulus":"audio/actual/s9-imitation-10bis_jenseigne_beaucoup-5_cut1norm.mp3","button_pressed":"1","test_part":"test","phrase":"10bis","condition":"imitation","subject":"s9","trial_type":"audio-button-response","trial_index":150,"time_elapsed":273001,"internal_node_id":"0.0-1.0-0.69"},{"rt":1451.854999999341,"stimulus":"audio/actual/s3-imitation-10bis_jenseigne_beaucoup-3_cut1norm.mp3","button_pressed":"1","test_part":"test","phrase":"10bis","condition":"imitation","subject":"s3","trial_type":"audio-button-response","trial_index":152,"time_elapsed":275057,"internal_node_id":"0.0-1.0-0.70"},{"rt":2855.4949999997625,"stimulus":"audio/actual/s2-lecture-10_jean_saigne_beaucoup-7_cut1norm.mp3","button_pressed":"0","test_part":"test","phrase":"10","condition":"lecture","subject":"s2","trial_type":"audio-button-response","trial_index":154,"time_elapsed":278405,"internal_node_id":"0.0-1.0-0.71"},{"rt":5100.819999999658,"stimulus":"audio/actual/s10-imitation-10_jean_saigne_beaucoup-11_cut1norm.mp3","button_pressed":"0","test_part":"test","phrase":"10","condition":"imitation","subject":"s10","trial_type":"audio-button-response","trial_index":156,"time_elapsed":284394,"internal_node_id":"0.0-1.0-0.72"},{"rt":2948.3350000010105,"stimulus":"audio/actual/s8-guide-10bis_jenseigne_beaucoup.mp3","button_pressed":"1","test_part":"test","phrase":"10bis","condition":"guide","subject":"s8","trial_type":"audio-button-response","trial_index":158,"time_elapsed":287801,"internal_node_id":"0.0-1.0-0.73"},{"rt":1758.3500000000931,"stimulus":"audio/actual/s9-imitation-10_jean_saigne_beaucoup-4_cut1norm.mp3","button_pressed":"0","test_part":"test","phrase":"10","condition":"imitation","subject":"s9","trial_type":"audio-button-response","trial_index":160,"time_elapsed":290169,"internal_node_id":"0.0-1.0-0.74"},{"rt":2136.6649999981746,"stimulus":"audio/actual/s4-imitation-10bis_jenseigne_beaucoup-0_cut1norm.mp3","button_pressed":"1","test_part":"test","phrase":"10bis","condition":"imitation","subject":"s4","trial_type":"audio-button-response","trial_index":162,"time_elapsed":292997,"internal_node_id":"0.0-1.0-0.75"},{"rt":3134.5849999998463,"stimulus":"audio/actual/s7-imitation-10_jean_saigne_beaucoup-3_cut1norm.mp3","button_pressed":"2","test_part":"test","phrase":"10","condition":"imitation","subject":"s7","trial_type":"audio-button-response","trial_index":164,"time_elapsed":296823,"internal_node_id":"0.0-1.0-0.76"},{"rt":1997.4099999999744,"stimulus":"audio/actual/s7-imitation-10_jean_saigne_beaucoup-3_cut1norm.mp3","button_pressed":"0","test_part":"test","phrase":"10","condition":"imitation","subject":"s7","trial_type":"audio-button-response","trial_index":165,"time_elapsed":298822,"internal_node_id":"0.0-1.0-1.76-0.76"},{"rt":2222.2599999986705,"stimulus":"audio/actual/s6-guide-10_jean_saigne_beaucoup.mp3","button_pressed":"0","test_part":"test","phrase":"10","condition":"guide","subject":"s6","trial_type":"audio-button-response","trial_index":167,"time_elapsed":301904,"internal_node_id":"0.0-1.0-0.77"},{"rt":3284.8349999985658,"stimulus":"audio/actual/s7-blind-10bis_jenseigne_beaucoup.mp3","button_pressed":"2","test_part":"test","phrase":"10bis","condition":"blind","subject":"s7","trial_type":"audio-button-response","trial_index":169,"time_elapsed":306089,"internal_node_id":"0.0-1.0-0.78"},{"rt":1661.4950000002282,"stimulus":"audio/actual/s7-blind-10bis_jenseigne_beaucoup.mp3","button_pressed":"1","test_part":"test","phrase":"10bis","condition":"blind","subject":"s7","trial_type":"audio-button-response","trial_index":170,"time_elapsed":307752,"internal_node_id":"0.0-1.0-1.78-0.78"},{"rt":2593.7550000016927,"stimulus":"audio/actual/s6-blind-10_jean_saigne_beaucoup.mp3","button_pressed":"2","test_part":"test","phrase":"10","condition":"blind","subject":"s6","trial_type":"audio-button-response","trial_index":172,"time_elapsed":310893,"internal_node_id":"0.0-1.0-0.79"},{"rt":2154.2650000010617,"stimulus":"audio/actual/s6-blind-10_jean_saigne_beaucoup.mp3","button_pressed":"1","test_part":"test","phrase":"10","condition":"blind","subject":"s6","trial_type":"audio-button-response","trial_index":173,"time_elapsed":313049,"internal_node_id":"0.0-1.0-1.79-0.79"}]