[{"rt":5077.655000030063,"stimulus":"audio/actual/s8-guide-10_jean_saigne_beaucoup.mp3","button_pressed":"2","test_part":"test","phrase":"10","condition":"guide","subject":"s8","trial_type":"audio-button-response","trial_index":1,"time_elapsed":10109,"internal_node_id":"0.0-1.0-0.0"},{"rt":2403.470000019297,"stimulus":"audio/actual/s8-guide-10_jean_saigne_beaucoup.mp3","button_pressed":"0","test_part":"test","phrase":"10","condition":"guide","subject":"s8","trial_type":"audio-button-response","trial_index":2,"time_elapsed":12521,"internal_node_id":"0.0-1.0-1.0-0.0"},{"rt":4726.000000024214,"stimulus":"audio/actual/s6-lecture-10_jean_saigne_beaucoup-1_cut1norm.mp3","button_pressed":"2","test_part":"test","phrase":"10","condition":"lecture","subject":"s6","trial_type":"audio-button-response","trial_index":4,"time_elapsed":18401,"internal_node_id":"0.0-1.0-0.1"},{"rt":3029.4999999459833,"stimulus":"audio/actual/s6-lecture-10_jean_saigne_beaucoup-1_cut1norm.mp3","button_pressed":"0","test_part":"test","phrase":"10","condition":"lecture","subject":"s6","trial_type":"audio-button-response","trial_index":5,"time_elapsed":21433,"internal_node_id":"0.0-1.0-1.1-0.1"},{"rt":1859.1599999926984,"stimulus":"audio/actual/s8-imitation-10bis_jenseigne_beaucoup-11_cut1norm.mp3","button_pressed":"1","test_part":"test","phrase":"10bis","condition":"imitation","subject":"s8","trial_type":"audio-button-response","trial_index":7,"time_elapsed":24192,"internal_node_id":"0.0-1.0-0.2"},{"rt":2806.689999997616,"stimulus":"audio/actual/s3-lecture-10_jean_saigne_beaucoup-2_cut1norm.mp3","button_pressed":"0","test_part":"test","phrase":"10","condition":"lecture","subject":"s3","trial_type":"audio-button-response","trial_index":9,"time_elapsed":27952,"internal_node_id":"0.0-1.0-0.3"},{"rt":2831.499999971129,"stimulus":"audio/actual/s5-blind-10bis_jenseigne_beaucoup.mp3","button_pressed":"2","test_part":"test","phrase":"10bis","condition":"blind","subject":"s5","trial_type":"audio-button-response","trial_index":11,"time_elapsed":31626,"internal_node_id":"0.0-1.0-0.4"},{"rt":9701.289999997243,"stimulus":"audio/actual/s5-blind-10bis_jenseigne_beaucoup.mp3","button_pressed":"0","test_part":"test","phrase":"10bis","condition":"blind","subject":"s5","trial_type":"audio-button-response","trial_index":12,"time_elapsed":41330,"internal_node_id":"0.0-1.0-1.4-0.4"},{"rt":2333.134999964386,"stimulus":"audio/actual/s3-blind-10bis_jenseigne_beaucoup.mp3","button_pressed":"2","test_part":"test","phrase":"10bis","condition":"blind","subject":"s3","trial_type":"audio-button-response","trial_index":14,"time_elapsed":44552,"internal_node_id":"0.0-1.0-0.5"},{"rt":2787.7149999840185,"stimulus":"audio/actual/s3-blind-10bis_jenseigne_beaucoup.mp3","button_pressed":"0","test_part":"test","phrase":"10bis","condition":"blind","subject":"s3","trial_type":"audio-button-response","trial_index":15,"time_elapsed":47342,"internal_node_id":"0.0-1.0-1.5-0.5"},{"rt":4750.830000033602,"stimulus":"audio/actual/s10-lecture-10bis_jenseigne_beaucoup-11_cut1norm.mp3","button_pressed":"2","test_part":"test","phrase":"10bis","condition":"lecture","subject":"s10","trial_type":"audio-button-response","trial_index":17,"time_elapsed":52847,"internal_node_id":"0.0-1.0-0.6"},{"rt":2178.2299999613315,"stimulus":"audio/actual/s10-lecture-10bis_jenseigne_beaucoup-11_cut1norm.mp3","button_pressed":"1","test_part":"test","phrase":"10bis","condition":"lecture","subject":"s10","trial_type":"audio-button-response","trial_index":18,"time_elapsed":55027,"internal_node_id":"0.0-1.0-1.6-0.6"},{"rt":3240.9050000132993,"stimulus":"audio/actual/s2-guide-10_jean_saigne_beaucoup.mp3","button_pressed":"2","test_part":"test","phrase":"10","condition":"guide","subject":"s2","trial_type":"audio-button-response","trial_index":20,"time_elapsed":59243,"internal_node_id":"0.0-1.0-0.7"},{"rt":2906.849999912083,"stimulus":"audio/actual/s2-guide-10_jean_saigne_beaucoup.mp3","button_pressed":"0","test_part":"test","phrase":"10","condition":"guide","subject":"s2","trial_type":"audio-button-response","trial_index":21,"time_elapsed":62152,"internal_node_id":"0.0-1.0-1.7-0.7"},{"rt":1725.730000063777,"stimulus":"audio/actual/s5-imitation-10bis_jenseigne_beaucoup-11_cut1norm.mp3","button_pressed":"1","test_part":"test","phrase":"10bis","condition":"imitation","subject":"s5","trial_type":"audio-button-response","trial_index":23,"time_elapsed":64628,"internal_node_id":"0.0-1.0-0.8"},{"rt":2047.1749999560416,"stimulus":"audio/actual/s2-imitation-10bis_jenseigne_beaucoup-5_cut1norm.mp3","button_pressed":"1","test_part":"test","phrase":"10bis","condition":"imitation","subject":"s2","trial_type":"audio-button-response","trial_index":25,"time_elapsed":67501,"internal_node_id":"0.0-1.0-0.9"},{"rt":2471.309999935329,"stimulus":"audio/actual/s5-imitation-10_jean_saigne_beaucoup-10_cut1norm.mp3","button_pressed":"0","test_part":"test","phrase":"10","condition":"imitation","subject":"s5","trial_type":"audio-button-response","trial_index":27,"time_elapsed":70638,"internal_node_id":"0.0-1.0-0.10"},{"rt":2172.0049999421462,"stimulus":"audio/actual/s8-blind-10bis_jenseigne_beaucoup.mp3","button_pressed":"1","test_part":"test","phrase":"10bis","condition":"blind","subject":"s8","trial_type":"audio-button-response","trial_index":29,"time_elapsed":73340,"internal_node_id":"0.0-1.0-0.11"},{"rt":1705.8149999938905,"stimulus":"audio/actual/s4-imitation-10bis_jenseigne_beaucoup-0_cut1norm.mp3","button_pressed":"1","test_part":"test","phrase":"10bis","condition":"imitation","subject":"s4","trial_type":"audio-button-response","trial_index":31,"time_elapsed":75704,"internal_node_id":"0.0-1.0-0.12"},{"rt":2992.42000002414,"stimulus":"audio/actual/s8-imitation-10_jean_saigne_beaucoup-10_cut1norm.mp3","button_pressed":"0","test_part":"test","phrase":"10","condition":"imitation","subject":"s8","trial_type":"audio-button-response","trial_index":33,"time_elapsed":79307,"internal_node_id":"0.0-1.0-0.13"},{"rt":5013.329999987036,"stimulus":"audio/actual/s9-lecture-10_jean_saigne_beaucoup-3_cut1norm.mp3","button_pressed":"0","test_part":"test","phrase":"10","condition":"lecture","subject":"s9","trial_type":"audio-button-response","trial_index":35,"time_elapsed":84890,"internal_node_id":"0.0-1.0-0.14"},{"rt":2716.2150000222027,"stimulus":"audio/actual/s3-imitation-10_jean_saigne_beaucoup-2_cut1norm.mp3","button_pressed":"0","test_part":"test","phrase":"10","condition":"imitation","subject":"s3","trial_type":"audio-button-response","trial_index":37,"time_elapsed":88364,"internal_node_id":"0.0-1.0-0.15"},{"rt":2809.320000000298,"stimulus":"audio/actual/s4-imitation-10_jean_saigne_beaucoup-1_cut1norm.mp3","button_pressed":"2","test_part":"test","phrase":"10","condition":"imitation","subject":"s4","trial_type":"audio-button-response","trial_index":39,"time_elapsed":92003,"internal_node_id":"0.0-1.0-0.16"},{"rt":2131.114999996498,"stimulus":"audio/actual/s4-imitation-10_jean_saigne_beaucoup-1_cut1norm.mp3","button_pressed":"0","test_part":"test","phrase":"10","condition":"imitation","subject":"s4","trial_type":"audio-button-response","trial_index":40,"time_elapsed":94136,"internal_node_id":"0.0-1.0-1.16-0.16"},{"rt":4564.314999966882,"stimulus":"audio/actual/s10-blind-10_jean_saigne_beaucoup.mp3","button_pressed":"2","test_part":"test","phrase":"10","condition":"blind","subject":"s10","trial_type":"audio-button-response","trial_index":42,"time_elapsed":99241,"internal_node_id":"0.0-1.0-0.17"},{"rt":4004.3600000208244,"stimulus":"audio/actual/s10-blind-10_jean_saigne_beaucoup.mp3","button_pressed":"1","test_part":"test","phrase":"10","condition":"blind","subject":"s10","trial_type":"audio-button-response","trial_index":43,"time_elapsed":103247,"internal_node_id":"0.0-1.0-1.17-0.17"},{"rt":3105.8199999388307,"stimulus":"audio/actual/s6-imitation-10_jean_saigne_beaucoup-5_cut1norm.mp3","button_pressed":"0","test_part":"test","phrase":"10","condition":"imitation","subject":"s6","trial_type":"audio-button-response","trial_index":45,"time_elapsed":106961,"internal_node_id":"0.0-1.0-0.18"},{"rt":3642.134999972768,"stimulus":"audio/actual/s10-imitation-10_jean_saigne_beaucoup-11_cut1norm.mp3","button_pressed":"0","test_part":"test","phrase":"10","condition":"imitation","subject":"s10","trial_type":"audio-button-response","trial_index":47,"time_elapsed":111172,"internal_node_id":"0.0-1.0-0.19"},{"rt":2126.189999980852,"stimulus":"audio/actual/s9-imitation-10_jean_saigne_beaucoup-4_cut1norm.mp3","button_pressed":"0","test_part":"test","phrase":"10","condition":"imitation","subject":"s9","trial_type":"audio-button-response","trial_index":49,"time_elapsed":114075,"internal_node_id":"0.0-1.0-0.20"},{"rt":1692.1950000105426,"stimulus":"audio/actual/s2-blind-10bis_jenseigne_beaucoup.mp3","button_pressed":"1","test_part":"test","phrase":"10bis","condition":"blind","subject":"s2","trial_type":"audio-button-response","trial_index":51,"time_elapsed":116292,"internal_node_id":"0.0-1.0-0.21"},{"rt":1542.6750000333413,"stimulus":"audio/actual/s6-lecture-10bis_jenseigne_beaucoup-0_cut1norm.mp3","button_pressed":"1","test_part":"test","phrase":"10bis","condition":"lecture","subject":"s6","trial_type":"audio-button-response","trial_index":53,"time_elapsed":118689,"internal_node_id":"0.0-1.0-0.22"},{"rt":4238.660000031814,"stimulus":"audio/actual/s3-guide-10_jean_saigne_beaucoup.mp3","button_pressed":"2","test_part":"test","phrase":"10","condition":"guide","subject":"s3","trial_type":"audio-button-response","trial_index":55,"time_elapsed":126491,"internal_node_id":"0.0-1.0-0.23"},{"rt":2877.3149999324232,"stimulus":"audio/actual/s3-guide-10_jean_saigne_beaucoup.mp3","button_pressed":"0","test_part":"test","phrase":"10","condition":"guide","subject":"s3","trial_type":"audio-button-response","trial_index":56,"time_elapsed":129370,"internal_node_id":"0.0-1.0-1.23-0.23"},{"rt":2826.905000023544,"stimulus":"audio/actual/s5-guide-10_jean_saigne_beaucoup.mp3","button_pressed":"2","test_part":"test","phrase":"10","condition":"guide","subject":"s5","trial_type":"audio-button-response","trial_index":58,"time_elapsed":132720,"internal_node_id":"0.0-1.0-0.24"},{"rt":5708.260000101291,"stimulus":"audio/actual/s5-guide-10_jean_saigne_beaucoup.mp3","button_pressed":"1","test_part":"test","phrase":"10","condition":"guide","subject":"s5","trial_type":"audio-button-response","trial_index":59,"time_elapsed":138431,"internal_node_id":"0.0-1.0-1.24-0.24"},{"rt":4407.565000001341,"stimulus":"audio/actual/s9-blind-10_jean_saigne_beaucoup.mp3","button_pressed":"2","test_part":"test","phrase":"10","condition":"blind","subject":"s9","trial_type":"audio-button-response","trial_index":61,"time_elapsed":143513,"internal_node_id":"0.0-1.0-0.25"},{"rt":5526.410000049509,"stimulus":"audio/actual/s9-blind-10_jean_saigne_beaucoup.mp3","button_pressed":"0","test_part":"test","phrase":"10","condition":"blind","subject":"s9","trial_type":"audio-button-response","trial_index":62,"time_elapsed":149041,"internal_node_id":"0.0-1.0-1.25-0.25"},{"rt":2038.8599999714643,"stimulus":"audio/actual/s7-blind-10_jean_saigne_beaucoup.mp3","button_pressed":"2","test_part":"test","phrase":"10","condition":"blind","subject":"s7","trial_type":"audio-button-response","trial_index":64,"time_elapsed":151597,"internal_node_id":"0.0-1.0-0.26"},{"rt":4539.850000059232,"stimulus":"audio/actual/s7-blind-10_jean_saigne_beaucoup.mp3","button_pressed":"0","test_part":"test","phrase":"10","condition":"blind","subject":"s7","trial_type":"audio-button-response","trial_index":65,"time_elapsed":156139,"internal_node_id":"0.0-1.0-1.26-0.26"},{"rt":5598.179999971762,"stimulus":"audio/actual/s4-guide-10_jean_saigne_beaucoup.mp3","button_pressed":"1","test_part":"test","phrase":"10","condition":"guide","subject":"s4","trial_type":"audio-button-response","trial_index":67,"time_elapsed":162298,"internal_node_id":"0.0-1.0-0.27"},{"rt":2733.0550000770018,"stimulus":"audio/actual/s7-lecture-10_jean_saigne_beaucoup-8_cut1norm.mp3","button_pressed":"0","test_part":"test","phrase":"10","condition":"lecture","subject":"s7","trial_type":"audio-button-response","trial_index":69,"time_elapsed":165846,"internal_node_id":"0.0-1.0-0.28"},{"rt":1497.0299999695271,"stimulus":"audio/actual/s8-guide-10bis_jenseigne_beaucoup.mp3","button_pressed":"1","test_part":"test","phrase":"10bis","condition":"guide","subject":"s8","trial_type":"audio-button-response","trial_index":71,"time_elapsed":167950,"internal_node_id":"0.0-1.0-0.29"},{"rt":1374.4700000388548,"stimulus":"audio/actual/s10-imitation-10bis_jenseigne_beaucoup-10_cut1norm.mp3","button_pressed":"1","test_part":"test","phrase":"10bis","condition":"imitation","subject":"s10","trial_type":"audio-button-response","trial_index":73,"time_elapsed":169817,"internal_node_id":"0.0-1.0-0.30"},{"rt":3179.260000004433,"stimulus":"audio/actual/s4-blind-10bis_jenseigne_beaucoup.mp3","button_pressed":"1","test_part":"test","phrase":"10bis","condition":"blind","subject":"s4","trial_type":"audio-button-response","trial_index":75,"time_elapsed":173526,"internal_node_id":"0.0-1.0-0.31"},{"rt":2943.9199999906123,"stimulus":"audio/actual/s9-guide-10_jean_saigne_beaucoup.mp3","button_pressed":"2","test_part":"test","phrase":"10","condition":"guide","subject":"s9","trial_type":"audio-button-response","trial_index":77,"time_elapsed":176935,"internal_node_id":"0.0-1.0-0.32"},{"rt":1801.2499999022111,"stimulus":"audio/actual/s9-guide-10_jean_saigne_beaucoup.mp3","button_pressed":"0","test_part":"test","phrase":"10","condition":"guide","subject":"s9","trial_type":"audio-button-response","trial_index":78,"time_elapsed":178738,"internal_node_id":"0.0-1.0-1.32-0.32"},{"rt":2265.339999925345,"stimulus":"audio/actual/s1-imitation-10bis_jenseigne_beaucoup-10_cut1norm.mp3","button_pressed":"1","test_part":"test","phrase":"10bis","condition":"imitation","subject":"s1","trial_type":"audio-button-response","trial_index":80,"time_elapsed":181611,"internal_node_id":"0.0-1.0-0.33"},{"rt":2763.1199999013916,"stimulus":"audio/actual/s6-blind-10_jean_saigne_beaucoup.mp3","button_pressed":"2","test_part":"test","phrase":"10","condition":"blind","subject":"s6","trial_type":"audio-button-response","trial_index":82,"time_elapsed":185127,"internal_node_id":"0.0-1.0-0.34"},{"rt":2017.0699999434873,"stimulus":"audio/actual/s6-blind-10_jean_saigne_beaucoup.mp3","button_pressed":"0","test_part":"test","phrase":"10","condition":"blind","subject":"s6","trial_type":"audio-button-response","trial_index":83,"time_elapsed":187146,"internal_node_id":"0.0-1.0-1.34-0.34"},{"rt":1793.0799999739975,"stimulus":"audio/actual/s7-guide-10_jean_saigne_beaucoup.mp3","button_pressed":"0","test_part":"test","phrase":"10","condition":"guide","subject":"s7","trial_type":"audio-button-response","trial_index":85,"time_elapsed":189832,"internal_node_id":"0.0-1.0-0.35"},{"rt":2474.374999990687,"stimulus":"audio/actual/s2-blind-10_jean_saigne_beaucoup.mp3","button_pressed":"1","test_part":"test","phrase":"10","condition":"blind","subject":"s2","trial_type":"audio-button-response","trial_index":87,"time_elapsed":192996,"internal_node_id":"0.0-1.0-0.36"},{"rt":3053.7950000725687,"stimulus":"audio/actual/s4-guide-10bis_jenseigne_beaucoup.mp3","button_pressed":"2","test_part":"test","phrase":"10bis","condition":"guide","subject":"s4","trial_type":"audio-button-response","trial_index":89,"time_elapsed":196523,"internal_node_id":"0.0-1.0-0.37"},{"rt":2394.635000033304,"stimulus":"audio/actual/s4-guide-10bis_jenseigne_beaucoup.mp3","button_pressed":"1","test_part":"test","phrase":"10bis","condition":"guide","subject":"s4","trial_type":"audio-button-response","trial_index":90,"time_elapsed":198919,"internal_node_id":"0.0-1.0-1.37-0.37"},{"rt":4499.099999899045,"stimulus":"audio/actual/s10-guide-10_jean_saigne_beaucoup.mp3","button_pressed":"0","test_part":"test","phrase":"10","condition":"guide","subject":"s10","trial_type":"audio-button-response","trial_index":92,"time_elapsed":203929,"internal_node_id":"0.0-1.0-0.38"},{"rt":1798.354999977164,"stimulus":"audio/actual/s7-lecture-10bis_jenseigne_beaucoup-9_cut1norm.mp3","button_pressed":"1","test_part":"test","phrase":"10bis","condition":"lecture","subject":"s7","trial_type":"audio-button-response","trial_index":94,"time_elapsed":206314,"internal_node_id":"0.0-1.0-0.39"},{"rt":2272.965000011027,"stimulus":"audio/actual/s8-lecture-10_jean_saigne_beaucoup-10_cut1norm.mp3","button_pressed":"0","test_part":"test","phrase":"10","condition":"lecture","subject":"s8","trial_type":"audio-button-response","trial_index":96,"time_elapsed":209131,"internal_node_id":"0.0-1.0-0.40"},{"rt":2130.104999989271,"stimulus":"audio/actual/s2-lecture-10_jean_saigne_beaucoup-7_cut1norm.mp3","button_pressed":"0","test_part":"test","phrase":"10","condition":"lecture","subject":"s2","trial_type":"audio-button-response","trial_index":98,"time_elapsed":211658,"internal_node_id":"0.0-1.0-0.41"},{"rt":2249.29000006523,"stimulus":"audio/actual/s8-blind-10_jean_saigne_beaucoup.mp3","button_pressed":"0","test_part":"test","phrase":"10","condition":"blind","subject":"s8","trial_type":"audio-button-response","trial_index":100,"time_elapsed":214360,"internal_node_id":"0.0-1.0-0.42"},{"rt":2386.1899999901652,"stimulus":"audio/actual/s9-lecture-10bis_jenseigne_beaucoup-2_cut1norm.mp3","button_pressed":"1","test_part":"test","phrase":"10bis","condition":"lecture","subject":"s9","trial_type":"audio-button-response","trial_index":102,"time_elapsed":217143,"internal_node_id":"0.0-1.0-0.43"},{"rt":2982.6950000133365,"stimulus":"audio/actual/s1-blind-10bis_jenseigne_beaucoup.mp3","button_pressed":"2","test_part":"test","phrase":"10bis","condition":"blind","subject":"s1","trial_type":"audio-button-response","trial_index":104,"time_elapsed":220764,"internal_node_id":"0.0-1.0-0.44"},{"rt":5111.860000062734,"stimulus":"audio/actual/s1-blind-10bis_jenseigne_beaucoup.mp3","button_pressed":"1","test_part":"test","phrase":"10bis","condition":"blind","subject":"s1","trial_type":"audio-button-response","trial_index":105,"time_elapsed":225878,"internal_node_id":"0.0-1.0-1.44-0.44"},{"rt":2284.059999976307,"stimulus":"audio/actual/s5-lecture-10_jean_saigne_beaucoup-5_cut1norm.mp3","button_pressed":"0","test_part":"test","phrase":"10","condition":"lecture","subject":"s5","trial_type":"audio-button-response","trial_index":107,"time_elapsed":454790,"internal_node_id":"0.0-1.0-0.45"},{"rt":2039.2100000753999,"stimulus":"audio/actual/s10-blind-10bis_jenseigne_beaucoup.mp3","button_pressed":"1","test_part":"test","phrase":"10bis","condition":"blind","subject":"s10","trial_type":"audio-button-response","trial_index":109,"time_elapsed":457303,"internal_node_id":"0.0-1.0-0.46"},{"rt":2619.495000108145,"stimulus":"audio/actual/s1-guide-10_jean_saigne_beaucoup.mp3","button_pressed":"0","test_part":"test","phrase":"10","condition":"guide","subject":"s1","trial_type":"audio-button-response","trial_index":111,"time_elapsed":460389,"internal_node_id":"0.0-1.0-0.47"},{"rt":2691.2249999586493,"stimulus":"audio/actual/s4-lecture-10_jean_saigne_beaucoup-1_cut1norm.mp3","button_pressed":"0","test_part":"test","phrase":"10","condition":"lecture","subject":"s4","trial_type":"audio-button-response","trial_index":113,"time_elapsed":463470,"internal_node_id":"0.0-1.0-0.48"},{"rt":1584.2399999964982,"stimulus":"audio/actual/s9-blind-10bis_jenseigne_beaucoup.mp3","button_pressed":"1","test_part":"test","phrase":"10bis","condition":"blind","subject":"s9","trial_type":"audio-button-response","trial_index":115,"time_elapsed":465574,"internal_node_id":"0.0-1.0-0.49"},{"rt":2201.359999948181,"stimulus":"audio/actual/s5-blind-10_jean_saigne_beaucoup.mp3","button_pressed":"0","test_part":"test","phrase":"10","condition":"blind","subject":"s5","trial_type":"audio-button-response","trial_index":117,"time_elapsed":468155,"internal_node_id":"0.0-1.0-0.50"},{"rt":1461.4450000226498,"stimulus":"audio/actual/s7-guide-10bis_jenseigne_beaucoup.mp3","button_pressed":"1","test_part":"test","phrase":"10bis","condition":"guide","subject":"s7","trial_type":"audio-button-response","trial_index":119,"time_elapsed":469978,"internal_node_id":"0.0-1.0-0.51"},{"rt":1426.5550000127405,"stimulus":"audio/actual/s8-lecture-10bis_jenseigne_beaucoup-11_cut1norm.mp3","button_pressed":"1","test_part":"test","phrase":"10bis","condition":"lecture","subject":"s8","trial_type":"audio-button-response","trial_index":121,"time_elapsed":471731,"internal_node_id":"0.0-1.0-0.52"},{"rt":1631.0049999738112,"stimulus":"audio/actual/s1-lecture-10_jean_saigne_beaucoup-2_cut1norm.mp3","button_pressed":"0","test_part":"test","phrase":"10","condition":"lecture","subject":"s1","trial_type":"audio-button-response","trial_index":123,"time_elapsed":473732,"internal_node_id":"0.0-1.0-0.53"},{"rt":3500.965000013821,"stimulus":"audio/actual/s2-lecture-10bis_jenseigne_beaucoup-6_cut1norm.mp3","button_pressed":"0","test_part":"test","phrase":"10bis","condition":"lecture","subject":"s2","trial_type":"audio-button-response","trial_index":125,"time_elapsed":477555,"internal_node_id":"0.0-1.0-0.54"},{"rt":1784.2699999455363,"stimulus":"audio/actual/s7-imitation-10_jean_saigne_beaucoup-3_cut1norm.mp3","button_pressed":"1","test_part":"test","phrase":"10","condition":"imitation","subject":"s7","trial_type":"audio-button-response","trial_index":127,"time_elapsed":479755,"internal_node_id":"0.0-1.0-0.55"},{"rt":1420.7750000059605,"stimulus":"audio/actual/s9-guide-10bis_jenseigne_beaucoup.mp3","button_pressed":"1","test_part":"test","phrase":"10bis","condition":"guide","subject":"s9","trial_type":"audio-button-response","trial_index":129,"time_elapsed":481503,"internal_node_id":"0.0-1.0-0.56"},{"rt":2058.6599999805912,"stimulus":"audio/actual/s1-blind-10_jean_saigne_beaucoup.mp3","button_pressed":"1","test_part":"test","phrase":"10","condition":"blind","subject":"s1","trial_type":"audio-button-response","trial_index":131,"time_elapsed":483970,"internal_node_id":"0.0-1.0-0.57"},{"rt":3105.519999982789,"stimulus":"audio/actual/s4-lecture-10bis_jenseigne_beaucoup-0_cut1norm.mp3","button_pressed":"0","test_part":"test","phrase":"10bis","condition":"lecture","subject":"s4","trial_type":"audio-button-response","trial_index":133,"time_elapsed":487459,"internal_node_id":"0.0-1.0-0.58"},{"rt":2863.314999965951,"stimulus":"audio/actual/s2-guide-10bis_jenseigne_beaucoup.mp3","button_pressed":"1","test_part":"test","phrase":"10bis","condition":"guide","subject":"s2","trial_type":"audio-button-response","trial_index":135,"time_elapsed":490627,"internal_node_id":"0.0-1.0-0.59"},{"rt":1351.3599999714643,"stimulus":"audio/actual/s3-imitation-10bis_jenseigne_beaucoup-3_cut1norm.mp3","button_pressed":"1","test_part":"test","phrase":"10bis","condition":"imitation","subject":"s3","trial_type":"audio-button-response","trial_index":137,"time_elapsed":492262,"internal_node_id":"0.0-1.0-0.60"},{"rt":1684.3549999175593,"stimulus":"audio/actual/s1-imitation-10_jean_saigne_beaucoup-11_cut1norm.mp3","button_pressed":"0","test_part":"test","phrase":"10","condition":"imitation","subject":"s1","trial_type":"audio-button-response","trial_index":139,"time_elapsed":494266,"internal_node_id":"0.0-1.0-0.61"},{"rt":4645.604999968782,"stimulus":"audio/actual/s4-blind-10_jean_saigne_beaucoup.mp3","button_pressed":"1","test_part":"test","phrase":"10","condition":"blind","subject":"s4","trial_type":"audio-button-response","trial_index":141,"time_elapsed":499247,"internal_node_id":"0.0-1.0-0.62"},{"rt":2494.8099999455735,"stimulus":"audio/actual/s1-guide-10bis_jenseigne_beaucoup.mp3","button_pressed":"0","test_part":"test","phrase":"10bis","condition":"guide","subject":"s1","trial_type":"audio-button-response","trial_index":143,"time_elapsed":502141,"internal_node_id":"0.0-1.0-0.63"},{"rt":2912.2700000880286,"stimulus":"audio/actual/s10-guide-10bis_jenseigne_beaucoup.mp3","button_pressed":"1","test_part":"test","phrase":"10bis","condition":"guide","subject":"s10","trial_type":"audio-button-response","trial_index":145,"time_elapsed":505350,"internal_node_id":"0.0-1.0-0.64"},{"rt":2054.164999979548,"stimulus":"audio/actual/s9-imitation-10bis_jenseigne_beaucoup-5_cut1norm.mp3","button_pressed":"1","test_part":"test","phrase":"10bis","condition":"imitation","subject":"s9","trial_type":"audio-button-response","trial_index":147,"time_elapsed":507806,"internal_node_id":"0.0-1.0-0.65"},{"rt":2260.8049999689683,"stimulus":"audio/actual/s3-blind-10_jean_saigne_beaucoup.mp3","button_pressed":"0","test_part":"test","phrase":"10","condition":"blind","subject":"s3","trial_type":"audio-button-response","trial_index":149,"time_elapsed":510532,"internal_node_id":"0.0-1.0-0.66"},{"rt":2817.9950000485405,"stimulus":"audio/actual/s6-guide-10bis_jenseigne_beaucoup.mp3","button_pressed":"1","test_part":"test","phrase":"10bis","condition":"guide","subject":"s6","trial_type":"audio-button-response","trial_index":151,"time_elapsed":513815,"internal_node_id":"0.0-1.0-0.67"},{"rt":2513.8499999884516,"stimulus":"audio/actual/s7-blind-10bis_jenseigne_beaucoup.mp3","button_pressed":"2","test_part":"test","phrase":"10bis","condition":"blind","subject":"s7","trial_type":"audio-button-response","trial_index":153,"time_elapsed":517088,"internal_node_id":"0.0-1.0-0.68"},{"rt":1633.239999995567,"stimulus":"audio/actual/s7-blind-10bis_jenseigne_beaucoup.mp3","button_pressed":"1","test_part":"test","phrase":"10bis","condition":"blind","subject":"s7","trial_type":"audio-button-response","trial_index":154,"time_elapsed":518723,"internal_node_id":"0.0-1.0-1.68-0.68"},{"rt":1927.8799999738112,"stimulus":"audio/actual/s6-imitation-10bis_jenseigne_beaucoup-4_cut1norm.mp3","button_pressed":"1","test_part":"test","phrase":"10bis","condition":"imitation","subject":"s6","trial_type":"audio-button-response","trial_index":156,"time_elapsed":521157,"internal_node_id":"0.0-1.0-0.69"},{"rt":2887.1300000464544,"stimulus":"audio/actual/s5-guide-10bis_jenseigne_beaucoup.mp3","button_pressed":"0","test_part":"test","phrase":"10bis","condition":"guide","subject":"s5","trial_type":"audio-button-response","trial_index":158,"time_elapsed":524444,"internal_node_id":"0.0-1.0-0.70"},{"rt":1709.679999970831,"stimulus":"audio/actual/s3-guide-10bis_jenseigne_beaucoup.mp3","button_pressed":"0","test_part":"test","phrase":"10bis","condition":"guide","subject":"s3","trial_type":"audio-button-response","trial_index":160,"time_elapsed":526395,"internal_node_id":"0.0-1.0-0.71"},{"rt":1446.8549999874085,"stimulus":"audio/actual/s5-lecture-10bis_jenseigne_beaucoup-4_cut1norm.mp3","button_pressed":"1","test_part":"test","phrase":"10bis","condition":"lecture","subject":"s5","trial_type":"audio-button-response","trial_index":162,"time_elapsed":528256,"internal_node_id":"0.0-1.0-0.72"},{"rt":1436.754999915138,"stimulus":"audio/actual/s7-imitation-10bis_jenseigne_beaucoup-2_cut1norm.mp3","button_pressed":"1","test_part":"test","phrase":"10bis","condition":"imitation","subject":"s7","trial_type":"audio-button-response","trial_index":164,"time_elapsed":530094,"internal_node_id":"0.0-1.0-0.73"},{"rt":2024.174999911338,"stimulus":"audio/actual/s6-guide-10_jean_saigne_beaucoup.mp3","button_pressed":"0","test_part":"test","phrase":"10","condition":"guide","subject":"s6","trial_type":"audio-button-response","trial_index":166,"time_elapsed":532539,"internal_node_id":"0.0-1.0-0.74"},{"rt":1584.0650000609457,"stimulus":"audio/actual/s10-lecture-10_jean_saigne_beaucoup-10_cut1norm.mp3","button_pressed":"1","test_part":"test","phrase":"10","condition":"lecture","subject":"s10","trial_type":"audio-button-response","trial_index":168,"time_elapsed":534540,"internal_node_id":"0.0-1.0-0.75"},{"rt":1923.1300000101328,"stimulus":"audio/actual/s6-blind-10bis_jenseigne_beaucoup.mp3","button_pressed":"0","test_part":"test","phrase":"10bis","condition":"blind","subject":"s6","trial_type":"audio-button-response","trial_index":170,"time_elapsed":536801,"internal_node_id":"0.0-1.0-0.76"},{"rt":2449.8000000603497,"stimulus":"audio/actual/s1-lecture-10bis_jenseigne_beaucoup-3_cut1norm.mp3","button_pressed":"0","test_part":"test","phrase":"10bis","condition":"lecture","subject":"s1","trial_type":"audio-button-response","trial_index":172,"time_elapsed":539682,"internal_node_id":"0.0-1.0-0.77"},{"rt":1989.25500002224,"stimulus":"audio/actual/s2-imitation-10_jean_saigne_beaucoup-4_cut1norm.mp3","button_pressed":"0","test_part":"test","phrase":"10","condition":"imitation","subject":"s2","trial_type":"audio-button-response","trial_index":174,"time_elapsed":541959,"internal_node_id":"0.0-1.0-0.78"},{"rt":1693.654999951832,"stimulus":"audio/actual/s3-lecture-10bis_jenseigne_beaucoup-3_cut1norm.mp3","button_pressed":"1","test_part":"test","phrase":"10bis","condition":"lecture","subject":"s3","trial_type":"audio-button-response","trial_index":176,"time_elapsed":544069,"internal_node_id":"0.0-1.0-0.79"}]