[{"rt":4786,"stimulus":"audio/actual/s8-guide-10bis_jenseigne_beaucoup.mp3","button_pressed":"2","test_part":"test","phrase":"10bis","condition":"guide","subject":"s8","trial_type":"audio-button-response","trial_index":1,"time_elapsed":9748,"internal_node_id":"0.0-1.0-0.0"},{"rt":1809,"stimulus":"audio/actual/s8-guide-10bis_jenseigne_beaucoup.mp3","button_pressed":"1","test_part":"test","phrase":"10bis","condition":"guide","subject":"s8","trial_type":"audio-button-response","trial_index":2,"time_elapsed":11559,"internal_node_id":"0.0-1.0-1.0-0.0"},{"rt":4607,"stimulus":"audio/actual/s1-guide-10_jean_saigne_beaucoup.mp3","button_pressed":"2","test_part":"test","phrase":"10","condition":"guide","subject":"s1","trial_type":"audio-button-response","trial_index":4,"time_elapsed":17177,"internal_node_id":"0.0-1.0-0.1"},{"rt":2275,"stimulus":"audio/actual/s1-guide-10_jean_saigne_beaucoup.mp3","button_pressed":"0","test_part":"test","phrase":"10","condition":"guide","subject":"s1","trial_type":"audio-button-response","trial_index":5,"time_elapsed":19452,"internal_node_id":"0.0-1.0-1.1-0.1"},{"rt":9006,"stimulus":"audio/actual/s4-blind-10_jean_saigne_beaucoup.mp3","button_pressed":"2","test_part":"test","phrase":"10","condition":"blind","subject":"s4","trial_type":"audio-button-response","trial_index":7,"time_elapsed":29229,"internal_node_id":"0.0-1.0-0.2"},{"rt":34669,"stimulus":"audio/actual/s4-blind-10_jean_saigne_beaucoup.mp3","button_pressed":"0","test_part":"test","phrase":"10","condition":"blind","subject":"s4","trial_type":"audio-button-response","trial_index":8,"time_elapsed":63957,"internal_node_id":"0.0-1.0-1.2-0.2"},{"rt":11030,"stimulus":"audio/actual/s9-blind-10_jean_saigne_beaucoup.mp3","button_pressed":"2","test_part":"test","phrase":"10","condition":"blind","subject":"s9","trial_type":"audio-button-response","trial_index":10,"time_elapsed":76225,"internal_node_id":"0.0-1.0-0.3"},{"rt":16561.000000000015,"stimulus":"audio/actual/s9-blind-10_jean_saigne_beaucoup.mp3","button_pressed":"0","test_part":"test","phrase":"10","condition":"blind","subject":"s9","trial_type":"audio-button-response","trial_index":11,"time_elapsed":92786,"internal_node_id":"0.0-1.0-1.3-0.3"},{"rt":3048,"stimulus":"audio/actual/s3-imitation-10bis_jenseigne_beaucoup-3_cut1norm.mp3","button_pressed":"2","test_part":"test","phrase":"10bis","condition":"imitation","subject":"s3","trial_type":"audio-button-response","trial_index":13,"time_elapsed":96995,"internal_node_id":"0.0-1.0-0.4"},{"rt":3206,"stimulus":"audio/actual/s3-imitation-10bis_jenseigne_beaucoup-3_cut1norm.mp3","button_pressed":"1","test_part":"test","phrase":"10bis","condition":"imitation","subject":"s3","trial_type":"audio-button-response","trial_index":14,"time_elapsed":100202,"internal_node_id":"0.0-1.0-1.4-0.4"},{"rt":3790,"stimulus":"audio/actual/s4-blind-10bis_jenseigne_beaucoup.mp3","button_pressed":"1","test_part":"test","phrase":"10bis","condition":"blind","subject":"s4","trial_type":"audio-button-response","trial_index":16,"time_elapsed":104893,"internal_node_id":"0.0-1.0-0.5"},{"rt":2294,"stimulus":"audio/actual/s10-lecture-10_jean_saigne_beaucoup-10_cut1norm.mp3","button_pressed":"0","test_part":"test","phrase":"10","condition":"lecture","subject":"s10","trial_type":"audio-button-response","trial_index":18,"time_elapsed":108270,"internal_node_id":"0.0-1.0-0.6"},{"rt":2385,"stimulus":"audio/actual/s4-lecture-10bis_jenseigne_beaucoup-0_cut1norm.mp3","button_pressed":"0","test_part":"test","phrase":"10bis","condition":"lecture","subject":"s4","trial_type":"audio-button-response","trial_index":20,"time_elapsed":111792,"internal_node_id":"0.0-1.0-0.7"},{"rt":1908,"stimulus":"audio/actual/s5-lecture-10bis_jenseigne_beaucoup-4_cut1norm.mp3","button_pressed":"0","test_part":"test","phrase":"10bis","condition":"lecture","subject":"s5","trial_type":"audio-button-response","trial_index":22,"time_elapsed":115250,"internal_node_id":"0.0-1.0-0.8"},{"rt":3377,"stimulus":"audio/actual/s9-imitation-10_jean_saigne_beaucoup-4_cut1norm.mp3","button_pressed":"0","test_part":"test","phrase":"10","condition":"imitation","subject":"s9","trial_type":"audio-button-response","trial_index":24,"time_elapsed":119230,"internal_node_id":"0.0-1.0-0.9"},{"rt":3485,"stimulus":"audio/actual/s1-blind-10_jean_saigne_beaucoup.mp3","button_pressed":"1","test_part":"test","phrase":"10","condition":"blind","subject":"s1","trial_type":"audio-button-response","trial_index":26,"time_elapsed":123246,"internal_node_id":"0.0-1.0-0.10"},{"rt":4282,"stimulus":"audio/actual/s10-blind-10_jean_saigne_beaucoup.mp3","button_pressed":"1","test_part":"test","phrase":"10","condition":"blind","subject":"s10","trial_type":"audio-button-response","trial_index":28,"time_elapsed":127897,"internal_node_id":"0.0-1.0-0.11"},{"rt":1961,"stimulus":"audio/actual/s1-imitation-10_jean_saigne_beaucoup-11_cut1norm.mp3","button_pressed":"0","test_part":"test","phrase":"10","condition":"imitation","subject":"s1","trial_type":"audio-button-response","trial_index":30,"time_elapsed":130716,"internal_node_id":"0.0-1.0-0.12"},{"rt":1646,"stimulus":"audio/actual/s7-guide-10bis_jenseigne_beaucoup.mp3","button_pressed":"1","test_part":"test","phrase":"10bis","condition":"guide","subject":"s7","trial_type":"audio-button-response","trial_index":32,"time_elapsed":132849,"internal_node_id":"0.0-1.0-0.13"},{"rt":2873,"stimulus":"audio/actual/s2-lecture-10bis_jenseigne_beaucoup-6_cut1norm.mp3","button_pressed":"1","test_part":"test","phrase":"10bis","condition":"lecture","subject":"s2","trial_type":"audio-button-response","trial_index":34,"time_elapsed":136041,"internal_node_id":"0.0-1.0-0.14"},{"rt":3412,"stimulus":"audio/actual/s10-imitation-10_jean_saigne_beaucoup-11_cut1norm.mp3","button_pressed":"0","test_part":"test","phrase":"10","condition":"imitation","subject":"s10","trial_type":"audio-button-response","trial_index":36,"time_elapsed":140350,"internal_node_id":"0.0-1.0-0.15"},{"rt":2629,"stimulus":"audio/actual/s6-lecture-10_jean_saigne_beaucoup-1_cut1norm.mp3","button_pressed":"1","test_part":"test","phrase":"10","condition":"lecture","subject":"s6","trial_type":"audio-button-response","trial_index":38,"time_elapsed":143446,"internal_node_id":"0.0-1.0-0.16"},{"rt":1817.999999999971,"stimulus":"audio/actual/s3-lecture-10bis_jenseigne_beaucoup-3_cut1norm.mp3","button_pressed":"0","test_part":"test","phrase":"10bis","condition":"lecture","subject":"s3","trial_type":"audio-button-response","trial_index":40,"time_elapsed":145569,"internal_node_id":"0.0-1.0-0.17"},{"rt":1880,"stimulus":"audio/actual/s8-lecture-10_jean_saigne_beaucoup-10_cut1norm.mp3","button_pressed":"0","test_part":"test","phrase":"10","condition":"lecture","subject":"s8","trial_type":"audio-button-response","trial_index":42,"time_elapsed":148079,"internal_node_id":"0.0-1.0-0.18"},{"rt":2664,"stimulus":"audio/actual/s9-blind-10bis_jenseigne_beaucoup.mp3","button_pressed":"1","test_part":"test","phrase":"10bis","condition":"blind","subject":"s9","trial_type":"audio-button-response","trial_index":44,"time_elapsed":151216,"internal_node_id":"0.0-1.0-0.19"},{"rt":2226,"stimulus":"audio/actual/s3-guide-10bis_jenseigne_beaucoup.mp3","button_pressed":"1","test_part":"test","phrase":"10bis","condition":"guide","subject":"s3","trial_type":"audio-button-response","trial_index":46,"time_elapsed":153876,"internal_node_id":"0.0-1.0-0.20"},{"rt":2164,"stimulus":"audio/actual/s5-imitation-10_jean_saigne_beaucoup-10_cut1norm.mp3","button_pressed":"1","test_part":"test","phrase":"10","condition":"imitation","subject":"s5","trial_type":"audio-button-response","trial_index":48,"time_elapsed":156444,"internal_node_id":"0.0-1.0-0.21"},{"rt":2892,"stimulus":"audio/actual/s3-lecture-10_jean_saigne_beaucoup-2_cut1norm.mp3","button_pressed":"0","test_part":"test","phrase":"10","condition":"lecture","subject":"s3","trial_type":"audio-button-response","trial_index":50,"time_elapsed":159588,"internal_node_id":"0.0-1.0-0.22"},{"rt":4058,"stimulus":"audio/actual/s2-imitation-10_jean_saigne_beaucoup-4_cut1norm.mp3","button_pressed":"0","test_part":"test","phrase":"10","condition":"imitation","subject":"s2","trial_type":"audio-button-response","trial_index":52,"time_elapsed":164385,"internal_node_id":"0.0-1.0-0.23"},{"rt":1705.999999999971,"stimulus":"audio/actual/s6-imitation-10_jean_saigne_beaucoup-5_cut1norm.mp3","button_pressed":"0","test_part":"test","phrase":"10","condition":"imitation","subject":"s6","trial_type":"audio-button-response","trial_index":54,"time_elapsed":166589,"internal_node_id":"0.0-1.0-0.24"},{"rt":1518,"stimulus":"audio/actual/s8-imitation-10_jean_saigne_beaucoup-10_cut1norm.mp3","button_pressed":"0","test_part":"test","phrase":"10","condition":"imitation","subject":"s8","trial_type":"audio-button-response","trial_index":56,"time_elapsed":168602,"internal_node_id":"0.0-1.0-0.25"},{"rt":2330,"stimulus":"audio/actual/s6-guide-10bis_jenseigne_beaucoup.mp3","button_pressed":"1","test_part":"test","phrase":"10bis","condition":"guide","subject":"s6","trial_type":"audio-button-response","trial_index":58,"time_elapsed":171250,"internal_node_id":"0.0-1.0-0.26"},{"rt":1512,"stimulus":"audio/actual/s8-imitation-10bis_jenseigne_beaucoup-11_cut1norm.mp3","button_pressed":"1","test_part":"test","phrase":"10bis","condition":"imitation","subject":"s8","trial_type":"audio-button-response","trial_index":60,"time_elapsed":173037,"internal_node_id":"0.0-1.0-0.27"},{"rt":2566.999999999971,"stimulus":"audio/actual/s10-imitation-10bis_jenseigne_beaucoup-10_cut1norm.mp3","button_pressed":"0","test_part":"test","phrase":"10bis","condition":"imitation","subject":"s10","trial_type":"audio-button-response","trial_index":62,"time_elapsed":175813,"internal_node_id":"0.0-1.0-0.28"},{"rt":5123,"stimulus":"audio/actual/s6-blind-10bis_jenseigne_beaucoup.mp3","button_pressed":"2","test_part":"test","phrase":"10bis","condition":"blind","subject":"s6","trial_type":"audio-button-response","trial_index":64,"time_elapsed":181223,"internal_node_id":"0.0-1.0-0.29"},{"rt":1624,"stimulus":"audio/actual/s6-blind-10bis_jenseigne_beaucoup.mp3","button_pressed":"0","test_part":"test","phrase":"10bis","condition":"blind","subject":"s6","trial_type":"audio-button-response","trial_index":65,"time_elapsed":182849,"internal_node_id":"0.0-1.0-1.29-0.29"},{"rt":1349.999999999971,"stimulus":"audio/actual/s7-guide-10_jean_saigne_beaucoup.mp3","button_pressed":"0","test_part":"test","phrase":"10","condition":"guide","subject":"s7","trial_type":"audio-button-response","trial_index":67,"time_elapsed":184584,"internal_node_id":"0.0-1.0-0.30"},{"rt":1272.000000000029,"stimulus":"audio/actual/s8-blind-10bis_jenseigne_beaucoup.mp3","button_pressed":"1","test_part":"test","phrase":"10bis","condition":"blind","subject":"s8","trial_type":"audio-button-response","trial_index":69,"time_elapsed":186283,"internal_node_id":"0.0-1.0-0.31"},{"rt":1928,"stimulus":"audio/actual/s5-guide-10bis_jenseigne_beaucoup.mp3","button_pressed":"1","test_part":"test","phrase":"10bis","condition":"guide","subject":"s5","trial_type":"audio-button-response","trial_index":71,"time_elapsed":188547,"internal_node_id":"0.0-1.0-0.32"},{"rt":2058,"stimulus":"audio/actual/s6-lecture-10bis_jenseigne_beaucoup-0_cut1norm.mp3","button_pressed":"1","test_part":"test","phrase":"10bis","condition":"lecture","subject":"s6","trial_type":"audio-button-response","trial_index":73,"time_elapsed":191334,"internal_node_id":"0.0-1.0-0.33"},{"rt":1965,"stimulus":"audio/actual/s1-lecture-10bis_jenseigne_beaucoup-3_cut1norm.mp3","button_pressed":"1","test_part":"test","phrase":"10bis","condition":"lecture","subject":"s1","trial_type":"audio-button-response","trial_index":75,"time_elapsed":193630,"internal_node_id":"0.0-1.0-0.34"},{"rt":1516,"stimulus":"audio/actual/s7-blind-10_jean_saigne_beaucoup.mp3","button_pressed":"0","test_part":"test","phrase":"10","condition":"blind","subject":"s7","trial_type":"audio-button-response","trial_index":77,"time_elapsed":195477,"internal_node_id":"0.0-1.0-0.35"},{"rt":1460,"stimulus":"audio/actual/s4-imitation-10bis_jenseigne_beaucoup-0_cut1norm.mp3","button_pressed":"1","test_part":"test","phrase":"10bis","condition":"imitation","subject":"s4","trial_type":"audio-button-response","trial_index":79,"time_elapsed":197175,"internal_node_id":"0.0-1.0-0.36"},{"rt":2446,"stimulus":"audio/actual/s3-blind-10_jean_saigne_beaucoup.mp3","button_pressed":"0","test_part":"test","phrase":"10","condition":"blind","subject":"s3","trial_type":"audio-button-response","trial_index":81,"time_elapsed":199849,"internal_node_id":"0.0-1.0-0.37"},{"rt":1438,"stimulus":"audio/actual/s7-blind-10bis_jenseigne_beaucoup.mp3","button_pressed":"1","test_part":"test","phrase":"10bis","condition":"blind","subject":"s7","trial_type":"audio-button-response","trial_index":83,"time_elapsed":201556,"internal_node_id":"0.0-1.0-0.38"},{"rt":1887,"stimulus":"audio/actual/s8-lecture-10bis_jenseigne_beaucoup-11_cut1norm.mp3","button_pressed":"1","test_part":"test","phrase":"10bis","condition":"lecture","subject":"s8","trial_type":"audio-button-response","trial_index":85,"time_elapsed":203708,"internal_node_id":"0.0-1.0-0.39"},{"rt":3065,"stimulus":"audio/actual/s5-guide-10_jean_saigne_beaucoup.mp3","button_pressed":"0","test_part":"test","phrase":"10","condition":"guide","subject":"s5","trial_type":"audio-button-response","trial_index":87,"time_elapsed":207485,"internal_node_id":"0.0-1.0-0.40"},{"rt":1755,"stimulus":"audio/actual/s8-guide-10_jean_saigne_beaucoup.mp3","button_pressed":"0","test_part":"test","phrase":"10","condition":"guide","subject":"s8","trial_type":"audio-button-response","trial_index":89,"time_elapsed":209427,"internal_node_id":"0.0-1.0-0.41"},{"rt":2030,"stimulus":"audio/actual/s4-lecture-10_jean_saigne_beaucoup-1_cut1norm.mp3","button_pressed":"0","test_part":"test","phrase":"10","condition":"lecture","subject":"s4","trial_type":"audio-button-response","trial_index":91,"time_elapsed":211677,"internal_node_id":"0.0-1.0-0.42"},{"rt":2479,"stimulus":"audio/actual/s3-imitation-10_jean_saigne_beaucoup-2_cut1norm.mp3","button_pressed":"0","test_part":"test","phrase":"10","condition":"imitation","subject":"s3","trial_type":"audio-button-response","trial_index":93,"time_elapsed":214416,"internal_node_id":"0.0-1.0-0.43"},{"rt":1995,"stimulus":"audio/actual/s4-imitation-10_jean_saigne_beaucoup-1_cut1norm.mp3","button_pressed":"0","test_part":"test","phrase":"10","condition":"imitation","subject":"s4","trial_type":"audio-button-response","trial_index":95,"time_elapsed":217095,"internal_node_id":"0.0-1.0-0.44"},{"rt":1507,"stimulus":"audio/actual/s7-lecture-10bis_jenseigne_beaucoup-9_cut1norm.mp3","button_pressed":"1","test_part":"test","phrase":"10bis","condition":"lecture","subject":"s7","trial_type":"audio-button-response","trial_index":97,"time_elapsed":218907,"internal_node_id":"0.0-1.0-0.45"},{"rt":2640,"stimulus":"audio/actual/s4-guide-10_jean_saigne_beaucoup.mp3","button_pressed":"0","test_part":"test","phrase":"10","condition":"guide","subject":"s4","trial_type":"audio-button-response","trial_index":99,"time_elapsed":221804,"internal_node_id":"0.0-1.0-0.46"},{"rt":2315,"stimulus":"audio/actual/s9-imitation-10bis_jenseigne_beaucoup-5_cut1norm.mp3","button_pressed":"1","test_part":"test","phrase":"10bis","condition":"imitation","subject":"s9","trial_type":"audio-button-response","trial_index":101,"time_elapsed":224348,"internal_node_id":"0.0-1.0-0.47"},{"rt":1709,"stimulus":"audio/actual/s2-lecture-10_jean_saigne_beaucoup-7_cut1norm.mp3","button_pressed":"0","test_part":"test","phrase":"10","condition":"lecture","subject":"s2","trial_type":"audio-button-response","trial_index":103,"time_elapsed":226312,"internal_node_id":"0.0-1.0-0.48"},{"rt":2566,"stimulus":"audio/actual/s10-guide-10_jean_saigne_beaucoup.mp3","button_pressed":"0","test_part":"test","phrase":"10","condition":"guide","subject":"s10","trial_type":"audio-button-response","trial_index":105,"time_elapsed":229162,"internal_node_id":"0.0-1.0-0.49"},{"rt":5884,"stimulus":"audio/actual/s2-guide-10_jean_saigne_beaucoup.mp3","button_pressed":"2","test_part":"test","phrase":"10","condition":"guide","subject":"s2","trial_type":"audio-button-response","trial_index":107,"time_elapsed":235321,"internal_node_id":"0.0-1.0-0.50"},{"rt":3708,"stimulus":"audio/actual/s2-guide-10_jean_saigne_beaucoup.mp3","button_pressed":"0","test_part":"test","phrase":"10","condition":"guide","subject":"s2","trial_type":"audio-button-response","trial_index":108,"time_elapsed":239031,"internal_node_id":"0.0-1.0-1.50-0.50"},{"rt":1681.999999999971,"stimulus":"audio/actual/s9-guide-10bis_jenseigne_beaucoup.mp3","button_pressed":"1","test_part":"test","phrase":"10bis","condition":"guide","subject":"s9","trial_type":"audio-button-response","trial_index":110,"time_elapsed":241701,"internal_node_id":"0.0-1.0-0.51"},{"rt":7731,"stimulus":"audio/actual/s1-blind-10bis_jenseigne_beaucoup.mp3","button_pressed":"1","test_part":"test","phrase":"10bis","condition":"blind","subject":"s1","trial_type":"audio-button-response","trial_index":112,"time_elapsed":249740,"internal_node_id":"0.0-1.0-0.52"},{"rt":2865.999999999942,"stimulus":"audio/actual/s7-imitation-10bis_jenseigne_beaucoup-2_cut1norm.mp3","button_pressed":"1","test_part":"test","phrase":"10bis","condition":"imitation","subject":"s7","trial_type":"audio-button-response","trial_index":114,"time_elapsed":253315,"internal_node_id":"0.0-1.0-0.53"},{"rt":1862,"stimulus":"audio/actual/s5-imitation-10bis_jenseigne_beaucoup-11_cut1norm.mp3","button_pressed":"1","test_part":"test","phrase":"10bis","condition":"imitation","subject":"s5","trial_type":"audio-button-response","trial_index":116,"time_elapsed":255649,"internal_node_id":"0.0-1.0-0.54"},{"rt":1375,"stimulus":"audio/actual/s8-blind-10_jean_saigne_beaucoup.mp3","button_pressed":"0","test_part":"test","phrase":"10","condition":"blind","subject":"s8","trial_type":"audio-button-response","trial_index":118,"time_elapsed":257411,"internal_node_id":"0.0-1.0-0.55"},{"rt":2918,"stimulus":"audio/actual/s3-blind-10bis_jenseigne_beaucoup.mp3","button_pressed":"1","test_part":"test","phrase":"10bis","condition":"blind","subject":"s3","trial_type":"audio-button-response","trial_index":120,"time_elapsed":260573,"internal_node_id":"0.0-1.0-0.56"},{"rt":2360,"stimulus":"audio/actual/s2-imitation-10bis_jenseigne_beaucoup-5_cut1norm.mp3","button_pressed":"0","test_part":"test","phrase":"10bis","condition":"imitation","subject":"s2","trial_type":"audio-button-response","trial_index":122,"time_elapsed":263205,"internal_node_id":"0.0-1.0-0.57"},{"rt":1801.9999999999418,"stimulus":"audio/actual/s7-imitation-10_jean_saigne_beaucoup-3_cut1norm.mp3","button_pressed":"0","test_part":"test","phrase":"10","condition":"imitation","subject":"s7","trial_type":"audio-button-response","trial_index":124,"time_elapsed":265304,"internal_node_id":"0.0-1.0-0.58"},{"rt":1950,"stimulus":"audio/actual/s6-imitation-10bis_jenseigne_beaucoup-4_cut1norm.mp3","button_pressed":"0","test_part":"test","phrase":"10bis","condition":"imitation","subject":"s6","trial_type":"audio-button-response","trial_index":126,"time_elapsed":267511,"internal_node_id":"0.0-1.0-0.59"},{"rt":4242,"stimulus":"audio/actual/s10-blind-10bis_jenseigne_beaucoup.mp3","button_pressed":"1","test_part":"test","phrase":"10bis","condition":"blind","subject":"s10","trial_type":"audio-button-response","trial_index":128,"time_elapsed":272266,"internal_node_id":"0.0-1.0-0.60"},{"rt":2435.000000000058,"stimulus":"audio/actual/s6-guide-10_jean_saigne_beaucoup.mp3","button_pressed":"0","test_part":"test","phrase":"10","condition":"guide","subject":"s6","trial_type":"audio-button-response","trial_index":130,"time_elapsed":275026,"internal_node_id":"0.0-1.0-0.61"},{"rt":7838,"stimulus":"audio/actual/s4-guide-10bis_jenseigne_beaucoup.mp3","button_pressed":"2","test_part":"test","phrase":"10bis","condition":"guide","subject":"s4","trial_type":"audio-button-response","trial_index":132,"time_elapsed":283070,"internal_node_id":"0.0-1.0-0.62"},{"rt":1290.0000000000582,"stimulus":"audio/actual/s4-guide-10bis_jenseigne_beaucoup.mp3","button_pressed":"0","test_part":"test","phrase":"10bis","condition":"guide","subject":"s4","trial_type":"audio-button-response","trial_index":133,"time_elapsed":284360,"internal_node_id":"0.0-1.0-1.62-0.62"},{"rt":1526,"stimulus":"audio/actual/s3-guide-10_jean_saigne_beaucoup.mp3","button_pressed":"0","test_part":"test","phrase":"10","condition":"guide","subject":"s3","trial_type":"audio-button-response","trial_index":135,"time_elapsed":286494,"internal_node_id":"0.0-1.0-0.63"},{"rt":2004,"stimulus":"audio/actual/s5-blind-10_jean_saigne_beaucoup.mp3","button_pressed":"0","test_part":"test","phrase":"10","condition":"blind","subject":"s5","trial_type":"audio-button-response","trial_index":137,"time_elapsed":288673,"internal_node_id":"0.0-1.0-0.64"},{"rt":2295.000000000058,"stimulus":"audio/actual/s1-guide-10bis_jenseigne_beaucoup.mp3","button_pressed":"1","test_part":"test","phrase":"10bis","condition":"guide","subject":"s1","trial_type":"audio-button-response","trial_index":139,"time_elapsed":291265,"internal_node_id":"0.0-1.0-0.65"},{"rt":1324,"stimulus":"audio/actual/s2-blind-10bis_jenseigne_beaucoup.mp3","button_pressed":"1","test_part":"test","phrase":"10bis","condition":"blind","subject":"s2","trial_type":"audio-button-response","trial_index":141,"time_elapsed":292818,"internal_node_id":"0.0-1.0-0.66"},{"rt":1721,"stimulus":"audio/actual/s9-guide-10_jean_saigne_beaucoup.mp3","button_pressed":"1","test_part":"test","phrase":"10","condition":"guide","subject":"s9","trial_type":"audio-button-response","trial_index":143,"time_elapsed":294753,"internal_node_id":"0.0-1.0-0.67"},{"rt":1899,"stimulus":"audio/actual/s5-lecture-10_jean_saigne_beaucoup-5_cut1norm.mp3","button_pressed":"0","test_part":"test","phrase":"10","condition":"lecture","subject":"s5","trial_type":"audio-button-response","trial_index":145,"time_elapsed":296869,"internal_node_id":"0.0-1.0-0.68"},{"rt":1715,"stimulus":"audio/actual/s9-lecture-10_jean_saigne_beaucoup-3_cut1norm.mp3","button_pressed":"0","test_part":"test","phrase":"10","condition":"lecture","subject":"s9","trial_type":"audio-button-response","trial_index":147,"time_elapsed":298804,"internal_node_id":"0.0-1.0-0.69"},{"rt":2728,"stimulus":"audio/actual/s6-blind-10_jean_saigne_beaucoup.mp3","button_pressed":"1","test_part":"test","phrase":"10","condition":"blind","subject":"s6","trial_type":"audio-button-response","trial_index":149,"time_elapsed":302169,"internal_node_id":"0.0-1.0-0.70"},{"rt":2132,"stimulus":"audio/actual/s10-lecture-10bis_jenseigne_beaucoup-11_cut1norm.mp3","button_pressed":"1","test_part":"test","phrase":"10bis","condition":"lecture","subject":"s10","trial_type":"audio-button-response","trial_index":151,"time_elapsed":304553,"internal_node_id":"0.0-1.0-0.71"},{"rt":2033,"stimulus":"audio/actual/s5-blind-10bis_jenseigne_beaucoup.mp3","button_pressed":"1","test_part":"test","phrase":"10bis","condition":"blind","subject":"s5","trial_type":"audio-button-response","trial_index":153,"time_elapsed":306855,"internal_node_id":"0.0-1.0-0.72"},{"rt":1854,"stimulus":"audio/actual/s2-blind-10_jean_saigne_beaucoup.mp3","button_pressed":"1","test_part":"test","phrase":"10","condition":"blind","subject":"s2","trial_type":"audio-button-response","trial_index":155,"time_elapsed":308979,"internal_node_id":"0.0-1.0-0.73"},{"rt":1748.9999999999418,"stimulus":"audio/actual/s1-imitation-10bis_jenseigne_beaucoup-10_cut1norm.mp3","button_pressed":"0","test_part":"test","phrase":"10bis","condition":"imitation","subject":"s1","trial_type":"audio-button-response","trial_index":157,"time_elapsed":310937,"internal_node_id":"0.0-1.0-0.74"},{"rt":2243,"stimulus":"audio/actual/s7-lecture-10_jean_saigne_beaucoup-8_cut1norm.mp3","button_pressed":"0","test_part":"test","phrase":"10","condition":"lecture","subject":"s7","trial_type":"audio-button-response","trial_index":159,"time_elapsed":313469,"internal_node_id":"0.0-1.0-0.75"},{"rt":1581,"stimulus":"audio/actual/s2-guide-10bis_jenseigne_beaucoup.mp3","button_pressed":"0","test_part":"test","phrase":"10bis","condition":"guide","subject":"s2","trial_type":"audio-button-response","trial_index":161,"time_elapsed":315380,"internal_node_id":"0.0-1.0-0.76"},{"rt":2029,"stimulus":"audio/actual/s1-lecture-10_jean_saigne_beaucoup-2_cut1norm.mp3","button_pressed":"1","test_part":"test","phrase":"10","condition":"lecture","subject":"s1","trial_type":"audio-button-response","trial_index":163,"time_elapsed":317687,"internal_node_id":"0.0-1.0-0.77"},{"rt":1915,"stimulus":"audio/actual/s9-lecture-10bis_jenseigne_beaucoup-2_cut1norm.mp3","button_pressed":"1","test_part":"test","phrase":"10bis","condition":"lecture","subject":"s9","trial_type":"audio-button-response","trial_index":165,"time_elapsed":319839,"internal_node_id":"0.0-1.0-0.78"},{"rt":2833,"stimulus":"audio/actual/s10-guide-10bis_jenseigne_beaucoup.mp3","button_pressed":"1","test_part":"test","phrase":"10bis","condition":"guide","subject":"s10","trial_type":"audio-button-response","trial_index":167,"time_elapsed":322911,"internal_node_id":"0.0-1.0-0.79"}]