[{"rt":3018.999999999999,"stimulus":"audio/actual/s4-guide-10bis_jenseigne_beaucoup.mp3","button_pressed":"1","test_part":"test","phrase":"10bis","condition":"guide","subject":"s4","trial_type":"audio-button-response","trial_index":1,"time_elapsed":5113,"internal_node_id":"0.0-1.0-0.0"},{"rt":3252,"stimulus":"audio/actual/s1-guide-10bis_jenseigne_beaucoup.mp3","button_pressed":"0","test_part":"test","phrase":"10bis","condition":"guide","subject":"s1","trial_type":"audio-button-response","trial_index":3,"time_elapsed":9727,"internal_node_id":"0.0-1.0-0.1"},{"rt":2810,"stimulus":"audio/actual/s7-imitation-10bis_jenseigne_beaucoup-2_cut1norm.mp3","button_pressed":"0","test_part":"test","phrase":"10bis","condition":"imitation","subject":"s7","trial_type":"audio-button-response","trial_index":5,"time_elapsed":13820,"internal_node_id":"0.0-1.0-0.2"},{"rt":2378,"stimulus":"audio/actual/s1-imitation-10bis_jenseigne_beaucoup-10_cut1norm.mp3","button_pressed":"1","test_part":"test","phrase":"10bis","condition":"imitation","subject":"s1","trial_type":"audio-button-response","trial_index":7,"time_elapsed":16876,"internal_node_id":"0.0-1.0-0.3"},{"rt":4005,"stimulus":"audio/actual/s6-blind-10_jean_saigne_beaucoup.mp3","button_pressed":"0","test_part":"test","phrase":"10","condition":"blind","subject":"s6","trial_type":"audio-button-response","trial_index":9,"time_elapsed":21764,"internal_node_id":"0.0-1.0-0.4"},{"rt":1831,"stimulus":"audio/actual/s4-imitation-10bis_jenseigne_beaucoup-0_cut1norm.mp3","button_pressed":"1","test_part":"test","phrase":"10bis","condition":"imitation","subject":"s4","trial_type":"audio-button-response","trial_index":11,"time_elapsed":24211,"internal_node_id":"0.0-1.0-0.5"},{"rt":2945,"stimulus":"audio/actual/s6-blind-10bis_jenseigne_beaucoup.mp3","button_pressed":"1","test_part":"test","phrase":"10bis","condition":"blind","subject":"s6","trial_type":"audio-button-response","trial_index":13,"time_elapsed":28030,"internal_node_id":"0.0-1.0-0.6"},{"rt":2109,"stimulus":"audio/actual/s9-imitation-10_jean_saigne_beaucoup-4_cut1norm.mp3","button_pressed":"0","test_part":"test","phrase":"10","condition":"imitation","subject":"s9","trial_type":"audio-button-response","trial_index":15,"time_elapsed":30645,"internal_node_id":"0.0-1.0-0.7"},{"rt":3435,"stimulus":"audio/actual/s8-blind-10bis_jenseigne_beaucoup.mp3","button_pressed":"0","test_part":"test","phrase":"10bis","condition":"blind","subject":"s8","trial_type":"audio-button-response","trial_index":17,"time_elapsed":34583,"internal_node_id":"0.0-1.0-0.8"},{"rt":1680,"stimulus":"audio/actual/s5-lecture-10bis_jenseigne_beaucoup-4_cut1norm.mp3","button_pressed":"1","test_part":"test","phrase":"10bis","condition":"lecture","subject":"s5","trial_type":"audio-button-response","trial_index":19,"time_elapsed":36778,"internal_node_id":"0.0-1.0-0.9"},{"rt":3275,"stimulus":"audio/actual/s6-guide-10bis_jenseigne_beaucoup.mp3","button_pressed":"0","test_part":"test","phrase":"10bis","condition":"guide","subject":"s6","trial_type":"audio-button-response","trial_index":21,"time_elapsed":40655,"internal_node_id":"0.0-1.0-0.10"},{"rt":2243,"stimulus":"audio/actual/s10-lecture-10_jean_saigne_beaucoup-10_cut1norm.mp3","button_pressed":"1","test_part":"test","phrase":"10","condition":"lecture","subject":"s10","trial_type":"audio-button-response","trial_index":23,"time_elapsed":43377,"internal_node_id":"0.0-1.0-0.11"},{"rt":2777,"stimulus":"audio/actual/s6-guide-10_jean_saigne_beaucoup.mp3","button_pressed":"0","test_part":"test","phrase":"10","condition":"guide","subject":"s6","trial_type":"audio-button-response","trial_index":25,"time_elapsed":46703,"internal_node_id":"0.0-1.0-0.12"},{"rt":1887,"stimulus":"audio/actual/s5-imitation-10_jean_saigne_beaucoup-10_cut1norm.mp3","button_pressed":"0","test_part":"test","phrase":"10","condition":"imitation","subject":"s5","trial_type":"audio-button-response","trial_index":27,"time_elapsed":49067,"internal_node_id":"0.0-1.0-0.13"},{"rt":5152.000000000007,"stimulus":"audio/actual/s7-lecture-10bis_jenseigne_beaucoup-9_cut1norm.mp3","button_pressed":"2","test_part":"test","phrase":"10bis","condition":"lecture","subject":"s7","trial_type":"audio-button-response","trial_index":29,"time_elapsed":54684,"internal_node_id":"0.0-1.0-0.14"},{"rt":2001.9999999999927,"stimulus":"audio/actual/s7-lecture-10bis_jenseigne_beaucoup-9_cut1norm.mp3","button_pressed":"1","test_part":"test","phrase":"10bis","condition":"lecture","subject":"s7","trial_type":"audio-button-response","trial_index":30,"time_elapsed":56691,"internal_node_id":"0.0-1.0-1.14-0.14"},{"rt":3541.9999999999927,"stimulus":"audio/actual/s5-guide-10bis_jenseigne_beaucoup.mp3","button_pressed":"1","test_part":"test","phrase":"10bis","condition":"guide","subject":"s5","trial_type":"audio-button-response","trial_index":32,"time_elapsed":60819,"internal_node_id":"0.0-1.0-0.15"},{"rt":3682,"stimulus":"audio/actual/s1-lecture-10_jean_saigne_beaucoup-2_cut1norm.mp3","button_pressed":"1","test_part":"test","phrase":"10","condition":"lecture","subject":"s1","trial_type":"audio-button-response","trial_index":34,"time_elapsed":64999,"internal_node_id":"0.0-1.0-0.16"},{"rt":2914,"stimulus":"audio/actual/s8-guide-10_jean_saigne_beaucoup.mp3","button_pressed":"0","test_part":"test","phrase":"10","condition":"guide","subject":"s8","trial_type":"audio-button-response","trial_index":36,"time_elapsed":68263,"internal_node_id":"0.0-1.0-0.17"},{"rt":1925,"stimulus":"audio/actual/s6-imitation-10_jean_saigne_beaucoup-5_cut1norm.mp3","button_pressed":"0","test_part":"test","phrase":"10","condition":"imitation","subject":"s6","trial_type":"audio-button-response","trial_index":38,"time_elapsed":70571,"internal_node_id":"0.0-1.0-0.18"},{"rt":2322.0000000000146,"stimulus":"audio/actual/s5-guide-10_jean_saigne_beaucoup.mp3","button_pressed":"0","test_part":"test","phrase":"10","condition":"guide","subject":"s5","trial_type":"audio-button-response","trial_index":40,"time_elapsed":73414,"internal_node_id":"0.0-1.0-0.19"},{"rt":2196,"stimulus":"audio/actual/s8-blind-10_jean_saigne_beaucoup.mp3","button_pressed":"1","test_part":"test","phrase":"10","condition":"blind","subject":"s8","trial_type":"audio-button-response","trial_index":42,"time_elapsed":76000,"internal_node_id":"0.0-1.0-0.20"},{"rt":1746,"stimulus":"audio/actual/s5-lecture-10_jean_saigne_beaucoup-5_cut1norm.mp3","button_pressed":"0","test_part":"test","phrase":"10","condition":"lecture","subject":"s5","trial_type":"audio-button-response","trial_index":44,"time_elapsed":78201,"internal_node_id":"0.0-1.0-0.21"},{"rt":1615,"stimulus":"audio/actual/s9-blind-10_jean_saigne_beaucoup.mp3","button_pressed":"0","test_part":"test","phrase":"10","condition":"blind","subject":"s9","trial_type":"audio-button-response","trial_index":46,"time_elapsed":80234,"internal_node_id":"0.0-1.0-0.22"},{"rt":1938,"stimulus":"audio/actual/s8-lecture-10bis_jenseigne_beaucoup-11_cut1norm.mp3","button_pressed":"1","test_part":"test","phrase":"10bis","condition":"lecture","subject":"s8","trial_type":"audio-button-response","trial_index":48,"time_elapsed":82664,"internal_node_id":"0.0-1.0-0.23"},{"rt":2372,"stimulus":"audio/actual/s2-lecture-10_jean_saigne_beaucoup-7_cut1norm.mp3","button_pressed":"0","test_part":"test","phrase":"10","condition":"lecture","subject":"s2","trial_type":"audio-button-response","trial_index":50,"time_elapsed":85496,"internal_node_id":"0.0-1.0-0.24"},{"rt":3430,"stimulus":"audio/actual/s1-lecture-10bis_jenseigne_beaucoup-3_cut1norm.mp3","button_pressed":"0","test_part":"test","phrase":"10bis","condition":"lecture","subject":"s1","trial_type":"audio-button-response","trial_index":52,"time_elapsed":89304,"internal_node_id":"0.0-1.0-0.25"},{"rt":1482,"stimulus":"audio/actual/s5-blind-10bis_jenseigne_beaucoup.mp3","button_pressed":"1","test_part":"test","phrase":"10bis","condition":"blind","subject":"s5","trial_type":"audio-button-response","trial_index":54,"time_elapsed":91137,"internal_node_id":"0.0-1.0-0.26"},{"rt":1513.0000000000146,"stimulus":"audio/actual/s1-imitation-10_jean_saigne_beaucoup-11_cut1norm.mp3","button_pressed":"0","test_part":"test","phrase":"10","condition":"imitation","subject":"s1","trial_type":"audio-button-response","trial_index":56,"time_elapsed":93056,"internal_node_id":"0.0-1.0-0.27"},{"rt":1858,"stimulus":"audio/actual/s2-blind-10_jean_saigne_beaucoup.mp3","button_pressed":"0","test_part":"test","phrase":"10","condition":"blind","subject":"s2","trial_type":"audio-button-response","trial_index":58,"time_elapsed":95269,"internal_node_id":"0.0-1.0-0.28"},{"rt":1432,"stimulus":"audio/actual/s9-lecture-10_jean_saigne_beaucoup-3_cut1norm.mp3","button_pressed":"0","test_part":"test","phrase":"10","condition":"lecture","subject":"s9","trial_type":"audio-button-response","trial_index":60,"time_elapsed":97017,"internal_node_id":"0.0-1.0-0.29"},{"rt":3531,"stimulus":"audio/actual/s4-guide-10_jean_saigne_beaucoup.mp3","button_pressed":"1","test_part":"test","phrase":"10","condition":"guide","subject":"s4","trial_type":"audio-button-response","trial_index":62,"time_elapsed":101025,"internal_node_id":"0.0-1.0-0.30"},{"rt":4008,"stimulus":"audio/actual/s10-blind-10_jean_saigne_beaucoup.mp3","button_pressed":"1","test_part":"test","phrase":"10","condition":"blind","subject":"s10","trial_type":"audio-button-response","trial_index":64,"time_elapsed":105848,"internal_node_id":"0.0-1.0-0.31"},{"rt":2180.0000000000146,"stimulus":"audio/actual/s2-imitation-10_jean_saigne_beaucoup-4_cut1norm.mp3","button_pressed":"0","test_part":"test","phrase":"10","condition":"imitation","subject":"s2","trial_type":"audio-button-response","trial_index":66,"time_elapsed":108574,"internal_node_id":"0.0-1.0-0.32"},{"rt":2186.0000000000146,"stimulus":"audio/actual/s10-lecture-10bis_jenseigne_beaucoup-11_cut1norm.mp3","button_pressed":"1","test_part":"test","phrase":"10bis","condition":"lecture","subject":"s10","trial_type":"audio-button-response","trial_index":68,"time_elapsed":111206,"internal_node_id":"0.0-1.0-0.33"},{"rt":1811,"stimulus":"audio/actual/s8-imitation-10_jean_saigne_beaucoup-10_cut1norm.mp3","button_pressed":"0","test_part":"test","phrase":"10","condition":"imitation","subject":"s8","trial_type":"audio-button-response","trial_index":70,"time_elapsed":113999,"internal_node_id":"0.0-1.0-0.34"},{"rt":1701.9999999999854,"stimulus":"audio/actual/s6-lecture-10bis_jenseigne_beaucoup-0_cut1norm.mp3","button_pressed":"1","test_part":"test","phrase":"10bis","condition":"lecture","subject":"s6","trial_type":"audio-button-response","trial_index":72,"time_elapsed":116118,"internal_node_id":"0.0-1.0-0.35"},{"rt":1837,"stimulus":"audio/actual/s9-guide-10bis_jenseigne_beaucoup.mp3","button_pressed":"1","test_part":"test","phrase":"10bis","condition":"guide","subject":"s9","trial_type":"audio-button-response","trial_index":74,"time_elapsed":118394,"internal_node_id":"0.0-1.0-0.36"},{"rt":1748.0000000000146,"stimulus":"audio/actual/s3-imitation-10_jean_saigne_beaucoup-2_cut1norm.mp3","button_pressed":"0","test_part":"test","phrase":"10","condition":"imitation","subject":"s3","trial_type":"audio-button-response","trial_index":76,"time_elapsed":120526,"internal_node_id":"0.0-1.0-0.37"},{"rt":1790.0000000000146,"stimulus":"audio/actual/s7-lecture-10_jean_saigne_beaucoup-8_cut1norm.mp3","button_pressed":"1","test_part":"test","phrase":"10","condition":"lecture","subject":"s7","trial_type":"audio-button-response","trial_index":78,"time_elapsed":122700,"internal_node_id":"0.0-1.0-0.38"},{"rt":2915,"stimulus":"audio/actual/s1-blind-10bis_jenseigne_beaucoup.mp3","button_pressed":"1","test_part":"test","phrase":"10bis","condition":"blind","subject":"s1","trial_type":"audio-button-response","trial_index":80,"time_elapsed":127020,"internal_node_id":"0.0-1.0-0.39"},{"rt":2335,"stimulus":"audio/actual/s3-lecture-10_jean_saigne_beaucoup-2_cut1norm.mp3","button_pressed":"0","test_part":"test","phrase":"10","condition":"lecture","subject":"s3","trial_type":"audio-button-response","trial_index":82,"time_elapsed":129743,"internal_node_id":"0.0-1.0-0.40"},{"rt":2009,"stimulus":"audio/actual/s2-guide-10_jean_saigne_beaucoup.mp3","button_pressed":"0","test_part":"test","phrase":"10","condition":"guide","subject":"s2","trial_type":"audio-button-response","trial_index":84,"time_elapsed":132213,"internal_node_id":"0.0-1.0-0.41"},{"rt":1806,"stimulus":"audio/actual/s3-blind-10bis_jenseigne_beaucoup.mp3","button_pressed":"1","test_part":"test","phrase":"10bis","condition":"blind","subject":"s3","trial_type":"audio-button-response","trial_index":86,"time_elapsed":134393,"internal_node_id":"0.0-1.0-0.42"},{"rt":2776.000000000029,"stimulus":"audio/actual/s8-lecture-10_jean_saigne_beaucoup-10_cut1norm.mp3","button_pressed":"0","test_part":"test","phrase":"10","condition":"lecture","subject":"s8","trial_type":"audio-button-response","trial_index":88,"time_elapsed":137640,"internal_node_id":"0.0-1.0-0.43"},{"rt":1744,"stimulus":"audio/actual/s9-imitation-10bis_jenseigne_beaucoup-5_cut1norm.mp3","button_pressed":"1","test_part":"test","phrase":"10bis","condition":"imitation","subject":"s9","trial_type":"audio-button-response","trial_index":90,"time_elapsed":139832,"internal_node_id":"0.0-1.0-0.44"},{"rt":1965,"stimulus":"audio/actual/s7-guide-10bis_jenseigne_beaucoup.mp3","button_pressed":"1","test_part":"test","phrase":"10bis","condition":"guide","subject":"s7","trial_type":"audio-button-response","trial_index":92,"time_elapsed":142242,"internal_node_id":"0.0-1.0-0.45"},{"rt":1963,"stimulus":"audio/actual/s10-imitation-10_jean_saigne_beaucoup-11_cut1norm.mp3","button_pressed":"0","test_part":"test","phrase":"10","condition":"imitation","subject":"s10","trial_type":"audio-button-response","trial_index":94,"time_elapsed":144661,"internal_node_id":"0.0-1.0-0.46"},{"rt":3046.000000000029,"stimulus":"audio/actual/s7-guide-10_jean_saigne_beaucoup.mp3","button_pressed":"0","test_part":"test","phrase":"10","condition":"guide","subject":"s7","trial_type":"audio-button-response","trial_index":96,"time_elapsed":148139,"internal_node_id":"0.0-1.0-0.47"},{"rt":1660.999999999971,"stimulus":"audio/actual/s8-imitation-10bis_jenseigne_beaucoup-11_cut1norm.mp3","button_pressed":"1","test_part":"test","phrase":"10bis","condition":"imitation","subject":"s8","trial_type":"audio-button-response","trial_index":98,"time_elapsed":150181,"internal_node_id":"0.0-1.0-0.48"},{"rt":2192,"stimulus":"audio/actual/s3-guide-10_jean_saigne_beaucoup.mp3","button_pressed":"0","test_part":"test","phrase":"10","condition":"guide","subject":"s3","trial_type":"audio-button-response","trial_index":100,"time_elapsed":152772,"internal_node_id":"0.0-1.0-0.49"},{"rt":1317,"stimulus":"audio/actual/s7-blind-10bis_jenseigne_beaucoup.mp3","button_pressed":"1","test_part":"test","phrase":"10bis","condition":"blind","subject":"s7","trial_type":"audio-button-response","trial_index":102,"time_elapsed":154560,"internal_node_id":"0.0-1.0-0.50"},{"rt":1764,"stimulus":"audio/actual/s2-imitation-10bis_jenseigne_beaucoup-5_cut1norm.mp3","button_pressed":"1","test_part":"test","phrase":"10bis","condition":"imitation","subject":"s2","trial_type":"audio-button-response","trial_index":104,"time_elapsed":156655,"internal_node_id":"0.0-1.0-0.51"},{"rt":1855.999999999971,"stimulus":"audio/actual/s4-imitation-10_jean_saigne_beaucoup-1_cut1norm.mp3","button_pressed":"0","test_part":"test","phrase":"10","condition":"imitation","subject":"s4","trial_type":"audio-button-response","trial_index":106,"time_elapsed":158894,"internal_node_id":"0.0-1.0-0.52"},{"rt":1470,"stimulus":"audio/actual/s2-blind-10bis_jenseigne_beaucoup.mp3","button_pressed":"1","test_part":"test","phrase":"10bis","condition":"blind","subject":"s2","trial_type":"audio-button-response","trial_index":108,"time_elapsed":160784,"internal_node_id":"0.0-1.0-0.53"},{"rt":3395,"stimulus":"audio/actual/s4-blind-10_jean_saigne_beaucoup.mp3","button_pressed":"1","test_part":"test","phrase":"10","condition":"blind","subject":"s4","trial_type":"audio-button-response","trial_index":110,"time_elapsed":164593,"internal_node_id":"0.0-1.0-0.54"},{"rt":2350,"stimulus":"audio/actual/s9-blind-10bis_jenseigne_beaucoup.mp3","button_pressed":"1","test_part":"test","phrase":"10bis","condition":"blind","subject":"s9","trial_type":"audio-button-response","trial_index":112,"time_elapsed":167304,"internal_node_id":"0.0-1.0-0.55"},{"rt":2239.999999999971,"stimulus":"audio/actual/s4-lecture-10bis_jenseigne_beaucoup-0_cut1norm.mp3","button_pressed":"1","test_part":"test","phrase":"10bis","condition":"lecture","subject":"s4","trial_type":"audio-button-response","trial_index":114,"time_elapsed":170022,"internal_node_id":"0.0-1.0-0.56"},{"rt":2150.999999999971,"stimulus":"audio/actual/s7-blind-10_jean_saigne_beaucoup.mp3","button_pressed":"0","test_part":"test","phrase":"10","condition":"blind","subject":"s7","trial_type":"audio-button-response","trial_index":116,"time_elapsed":172547,"internal_node_id":"0.0-1.0-0.57"},{"rt":3090.000000000029,"stimulus":"audio/actual/s3-guide-10bis_jenseigne_beaucoup.mp3","button_pressed":"1","test_part":"test","phrase":"10bis","condition":"guide","subject":"s3","trial_type":"audio-button-response","trial_index":118,"time_elapsed":175997,"internal_node_id":"0.0-1.0-0.58"},{"rt":3532,"stimulus":"audio/actual/s5-blind-10_jean_saigne_beaucoup.mp3","button_pressed":"0","test_part":"test","phrase":"10","condition":"blind","subject":"s5","trial_type":"audio-button-response","trial_index":120,"time_elapsed":179879,"internal_node_id":"0.0-1.0-0.59"},{"rt":1273,"stimulus":"audio/actual/s8-guide-10bis_jenseigne_beaucoup.mp3","button_pressed":"1","test_part":"test","phrase":"10bis","condition":"guide","subject":"s8","trial_type":"audio-button-response","trial_index":122,"time_elapsed":181470,"internal_node_id":"0.0-1.0-0.60"},{"rt":1334.000000000029,"stimulus":"audio/actual/s6-imitation-10bis_jenseigne_beaucoup-4_cut1norm.mp3","button_pressed":"1","test_part":"test","phrase":"10bis","condition":"imitation","subject":"s6","trial_type":"audio-button-response","trial_index":124,"time_elapsed":183103,"internal_node_id":"0.0-1.0-0.61"},{"rt":3063,"stimulus":"audio/actual/s10-guide-10_jean_saigne_beaucoup.mp3","button_pressed":"0","test_part":"test","phrase":"10","condition":"guide","subject":"s10","trial_type":"audio-button-response","trial_index":126,"time_elapsed":186514,"internal_node_id":"0.0-1.0-0.62"},{"rt":1853,"stimulus":"audio/actual/s6-lecture-10_jean_saigne_beaucoup-1_cut1norm.mp3","button_pressed":"0","test_part":"test","phrase":"10","condition":"lecture","subject":"s6","trial_type":"audio-button-response","trial_index":128,"time_elapsed":188798,"internal_node_id":"0.0-1.0-0.63"},{"rt":1826,"stimulus":"audio/actual/s2-lecture-10bis_jenseigne_beaucoup-6_cut1norm.mp3","button_pressed":"1","test_part":"test","phrase":"10bis","condition":"lecture","subject":"s2","trial_type":"audio-button-response","trial_index":130,"time_elapsed":191021,"internal_node_id":"0.0-1.0-0.64"},{"rt":2769,"stimulus":"audio/actual/s3-blind-10_jean_saigne_beaucoup.mp3","button_pressed":"0","test_part":"test","phrase":"10","condition":"blind","subject":"s3","trial_type":"audio-button-response","trial_index":132,"time_elapsed":194220,"internal_node_id":"0.0-1.0-0.65"},{"rt":1769.999999999971,"stimulus":"audio/actual/s10-imitation-10bis_jenseigne_beaucoup-10_cut1norm.mp3","button_pressed":"1","test_part":"test","phrase":"10bis","condition":"imitation","subject":"s10","trial_type":"audio-button-response","trial_index":134,"time_elapsed":196290,"internal_node_id":"0.0-1.0-0.66"},{"rt":2767.000000000029,"stimulus":"audio/actual/s5-imitation-10bis_jenseigne_beaucoup-11_cut1norm.mp3","button_pressed":"1","test_part":"test","phrase":"10bis","condition":"imitation","subject":"s5","trial_type":"audio-button-response","trial_index":136,"time_elapsed":199372,"internal_node_id":"0.0-1.0-0.67"},{"rt":2600,"stimulus":"audio/actual/s10-guide-10bis_jenseigne_beaucoup.mp3","button_pressed":"1","test_part":"test","phrase":"10bis","condition":"guide","subject":"s10","trial_type":"audio-button-response","trial_index":138,"time_elapsed":202375,"internal_node_id":"0.0-1.0-0.68"},{"rt":1663,"stimulus":"audio/actual/s2-guide-10bis_jenseigne_beaucoup.mp3","button_pressed":"1","test_part":"test","phrase":"10bis","condition":"guide","subject":"s2","trial_type":"audio-button-response","trial_index":140,"time_elapsed":204515,"internal_node_id":"0.0-1.0-0.69"},{"rt":2085,"stimulus":"audio/actual/s10-blind-10bis_jenseigne_beaucoup.mp3","button_pressed":"1","test_part":"test","phrase":"10bis","condition":"blind","subject":"s10","trial_type":"audio-button-response","trial_index":142,"time_elapsed":206927,"internal_node_id":"0.0-1.0-0.70"},{"rt":1919.000000000029,"stimulus":"audio/actual/s1-blind-10_jean_saigne_beaucoup.mp3","button_pressed":"0","test_part":"test","phrase":"10","condition":"blind","subject":"s1","trial_type":"audio-button-response","trial_index":144,"time_elapsed":209444,"internal_node_id":"0.0-1.0-0.71"},{"rt":2296,"stimulus":"audio/actual/s9-lecture-10bis_jenseigne_beaucoup-2_cut1norm.mp3","button_pressed":"1","test_part":"test","phrase":"10bis","condition":"lecture","subject":"s9","trial_type":"audio-button-response","trial_index":146,"time_elapsed":212115,"internal_node_id":"0.0-1.0-0.72"},{"rt":3261,"stimulus":"audio/actual/s3-imitation-10bis_jenseigne_beaucoup-3_cut1norm.mp3","button_pressed":"1","test_part":"test","phrase":"10bis","condition":"imitation","subject":"s3","trial_type":"audio-button-response","trial_index":148,"time_elapsed":215828,"internal_node_id":"0.0-1.0-0.73"},{"rt":2420,"stimulus":"audio/actual/s4-blind-10bis_jenseigne_beaucoup.mp3","button_pressed":"1","test_part":"test","phrase":"10bis","condition":"blind","subject":"s4","trial_type":"audio-button-response","trial_index":150,"time_elapsed":219124,"internal_node_id":"0.0-1.0-0.74"},{"rt":1555.000000000029,"stimulus":"audio/actual/s9-guide-10_jean_saigne_beaucoup.mp3","button_pressed":"0","test_part":"test","phrase":"10","condition":"guide","subject":"s9","trial_type":"audio-button-response","trial_index":152,"time_elapsed":221039,"internal_node_id":"0.0-1.0-0.75"},{"rt":4104.999999999971,"stimulus":"audio/actual/s1-guide-10_jean_saigne_beaucoup.mp3","button_pressed":"2","test_part":"test","phrase":"10","condition":"guide","subject":"s1","trial_type":"audio-button-response","trial_index":154,"time_elapsed":225543,"internal_node_id":"0.0-1.0-0.76"},{"rt":1679.000000000029,"stimulus":"audio/actual/s1-guide-10_jean_saigne_beaucoup.mp3","button_pressed":"0","test_part":"test","phrase":"10","condition":"guide","subject":"s1","trial_type":"audio-button-response","trial_index":155,"time_elapsed":227224,"internal_node_id":"0.0-1.0-1.76-0.76"},{"rt":1530.999999999971,"stimulus":"audio/actual/s7-imitation-10_jean_saigne_beaucoup-3_cut1norm.mp3","button_pressed":"0","test_part":"test","phrase":"10","condition":"imitation","subject":"s7","trial_type":"audio-button-response","trial_index":157,"time_elapsed":229159,"internal_node_id":"0.0-1.0-0.77"},{"rt":1646,"stimulus":"audio/actual/s3-lecture-10bis_jenseigne_beaucoup-3_cut1norm.mp3","button_pressed":"1","test_part":"test","phrase":"10bis","condition":"lecture","subject":"s3","trial_type":"audio-button-response","trial_index":159,"time_elapsed":231208,"internal_node_id":"0.0-1.0-0.78"},{"rt":2234,"stimulus":"audio/actual/s4-lecture-10_jean_saigne_beaucoup-1_cut1norm.mp3","button_pressed":"0","test_part":"test","phrase":"10","condition":"lecture","subject":"s4","trial_type":"audio-button-response","trial_index":161,"time_elapsed":233950,"internal_node_id":"0.0-1.0-0.79"}]