[{"rt":8540.47000000719,"stimulus":"audio/actual/s4-guide-10_jean_saigne_beaucoup.mp3","button_pressed":"0","test_part":"test","phrase":"10","condition":"guide","subject":"s4","trial_type":"audio-button-response","trial_index":1,"time_elapsed":16372,"internal_node_id":"0.0-1.0-0.0"},{"rt":4156.52499999851,"stimulus":"audio/actual/s3-blind-10_jean_saigne_beaucoup.mp3","button_pressed":"1","test_part":"test","phrase":"10","condition":"blind","subject":"s3","trial_type":"audio-button-response","trial_index":3,"time_elapsed":21813,"internal_node_id":"0.0-1.0-0.1"},{"rt":3323.3300000429153,"stimulus":"audio/actual/s10-guide-10bis_jenseigne_beaucoup.mp3","button_pressed":"0","test_part":"test","phrase":"10bis","condition":"guide","subject":"s10","trial_type":"audio-button-response","trial_index":5,"time_elapsed":26224,"internal_node_id":"0.0-1.0-0.2"},{"rt":16960.82999999635,"stimulus":"audio/actual/s7-lecture-10_jean_saigne_beaucoup-8_cut1norm.mp3","button_pressed":"1","test_part":"test","phrase":"10","condition":"lecture","subject":"s7","trial_type":"audio-button-response","trial_index":7,"time_elapsed":44195,"internal_node_id":"0.0-1.0-0.3"},{"rt":5400.849999976344,"stimulus":"audio/actual/s9-lecture-10bis_jenseigne_beaucoup-2_cut1norm.mp3","button_pressed":"0","test_part":"test","phrase":"10bis","condition":"lecture","subject":"s9","trial_type":"audio-button-response","trial_index":9,"time_elapsed":51076,"internal_node_id":"0.0-1.0-0.4"},{"rt":3054.270000080578,"stimulus":"audio/actual/s1-imitation-10bis_jenseigne_beaucoup-10_cut1norm.mp3","button_pressed":"1","test_part":"test","phrase":"10bis","condition":"imitation","subject":"s1","trial_type":"audio-button-response","trial_index":11,"time_elapsed":54717,"internal_node_id":"0.0-1.0-0.5"},{"rt":4953.6300000036135,"stimulus":"audio/actual/s2-blind-10_jean_saigne_beaucoup.mp3","button_pressed":"0","test_part":"test","phrase":"10","condition":"blind","subject":"s2","trial_type":"audio-button-response","trial_index":13,"time_elapsed":60084,"internal_node_id":"0.0-1.0-0.6"},{"rt":2559.759999974631,"stimulus":"audio/actual/s1-imitation-10_jean_saigne_beaucoup-11_cut1norm.mp3","button_pressed":"0","test_part":"test","phrase":"10","condition":"imitation","subject":"s1","trial_type":"audio-button-response","trial_index":15,"time_elapsed":63010,"internal_node_id":"0.0-1.0-0.7"},{"rt":2271.015000063926,"stimulus":"audio/actual/s3-imitation-10bis_jenseigne_beaucoup-3_cut1norm.mp3","button_pressed":"1","test_part":"test","phrase":"10bis","condition":"imitation","subject":"s3","trial_type":"audio-button-response","trial_index":17,"time_elapsed":65651,"internal_node_id":"0.0-1.0-0.8"},{"rt":6068.169999984093,"stimulus":"audio/actual/s7-imitation-10_jean_saigne_beaucoup-3_cut1norm.mp3","button_pressed":"2","test_part":"test","phrase":"10","condition":"imitation","subject":"s7","trial_type":"audio-button-response","trial_index":19,"time_elapsed":72063,"internal_node_id":"0.0-1.0-0.9"},{"rt":3006.8100000498816,"stimulus":"audio/actual/s7-imitation-10_jean_saigne_beaucoup-3_cut1norm.mp3","button_pressed":"0","test_part":"test","phrase":"10","condition":"imitation","subject":"s7","trial_type":"audio-button-response","trial_index":20,"time_elapsed":75075,"internal_node_id":"0.0-1.0-1.9-0.9"},{"rt":2126.5300000086427,"stimulus":"audio/actual/s10-lecture-10_jean_saigne_beaucoup-10_cut1norm.mp3","button_pressed":"1","test_part":"test","phrase":"10","condition":"lecture","subject":"s10","trial_type":"audio-button-response","trial_index":22,"time_elapsed":77563,"internal_node_id":"0.0-1.0-0.10"},{"rt":2477.115000016056,"stimulus":"audio/actual/s5-imitation-10_jean_saigne_beaucoup-10_cut1norm.mp3","button_pressed":"0","test_part":"test","phrase":"10","condition":"imitation","subject":"s5","trial_type":"audio-button-response","trial_index":24,"time_elapsed":80302,"internal_node_id":"0.0-1.0-0.11"},{"rt":4766.865000012331,"stimulus":"audio/actual/s10-blind-10bis_jenseigne_beaucoup.mp3","button_pressed":"0","test_part":"test","phrase":"10bis","condition":"blind","subject":"s10","trial_type":"audio-button-response","trial_index":26,"time_elapsed":85384,"internal_node_id":"0.0-1.0-0.12"},{"rt":1985.7149999588728,"stimulus":"audio/actual/s8-blind-10bis_jenseigne_beaucoup.mp3","button_pressed":"1","test_part":"test","phrase":"10bis","condition":"blind","subject":"s8","trial_type":"audio-button-response","trial_index":28,"time_elapsed":87705,"internal_node_id":"0.0-1.0-0.13"},{"rt":4987.525000004098,"stimulus":"audio/actual/s4-blind-10_jean_saigne_beaucoup.mp3","button_pressed":"1","test_part":"test","phrase":"10","condition":"blind","subject":"s4","trial_type":"audio-button-response","trial_index":30,"time_elapsed":93002,"internal_node_id":"0.0-1.0-0.14"},{"rt":2033.5400000913069,"stimulus":"audio/actual/s9-blind-10bis_jenseigne_beaucoup.mp3","button_pressed":"1","test_part":"test","phrase":"10bis","condition":"blind","subject":"s9","trial_type":"audio-button-response","trial_index":32,"time_elapsed":95238,"internal_node_id":"0.0-1.0-0.15"},{"rt":2610.510000027716,"stimulus":"audio/actual/s3-guide-10bis_jenseigne_beaucoup.mp3","button_pressed":"1","test_part":"test","phrase":"10bis","condition":"guide","subject":"s3","trial_type":"audio-button-response","trial_index":34,"time_elapsed":98115,"internal_node_id":"0.0-1.0-0.16"},{"rt":2336.5900000790134,"stimulus":"audio/actual/s6-lecture-10_jean_saigne_beaucoup-1_cut1norm.mp3","button_pressed":"0","test_part":"test","phrase":"10","condition":"lecture","subject":"s6","trial_type":"audio-button-response","trial_index":36,"time_elapsed":100712,"internal_node_id":"0.0-1.0-0.17"},{"rt":2566.8500000610948,"stimulus":"audio/actual/s9-lecture-10_jean_saigne_beaucoup-3_cut1norm.mp3","button_pressed":"0","test_part":"test","phrase":"10","condition":"lecture","subject":"s9","trial_type":"audio-button-response","trial_index":38,"time_elapsed":103587,"internal_node_id":"0.0-1.0-0.18"},{"rt":2697.0300000393763,"stimulus":"audio/actual/s1-blind-10_jean_saigne_beaucoup.mp3","button_pressed":"1","test_part":"test","phrase":"10","condition":"blind","subject":"s1","trial_type":"audio-button-response","trial_index":40,"time_elapsed":106551,"internal_node_id":"0.0-1.0-0.19"},{"rt":2190.3300000121817,"stimulus":"audio/actual/s6-guide-10_jean_saigne_beaucoup.mp3","button_pressed":"1","test_part":"test","phrase":"10","condition":"guide","subject":"s6","trial_type":"audio-button-response","trial_index":42,"time_elapsed":108979,"internal_node_id":"0.0-1.0-0.20"},{"rt":3957.795000053011,"stimulus":"audio/actual/s8-lecture-10bis_jenseigne_beaucoup-11_cut1norm.mp3","button_pressed":"1","test_part":"test","phrase":"10bis","condition":"lecture","subject":"s8","trial_type":"audio-button-response","trial_index":44,"time_elapsed":113190,"internal_node_id":"0.0-1.0-0.21"},{"rt":3682.1299999719486,"stimulus":"audio/actual/s9-blind-10_jean_saigne_beaucoup.mp3","button_pressed":"2","test_part":"test","phrase":"10","condition":"blind","subject":"s9","trial_type":"audio-button-response","trial_index":46,"time_elapsed":117014,"internal_node_id":"0.0-1.0-0.22"},{"rt":1928.5000000381842,"stimulus":"audio/actual/s9-blind-10_jean_saigne_beaucoup.mp3","button_pressed":"1","test_part":"test","phrase":"10","condition":"blind","subject":"s9","trial_type":"audio-button-response","trial_index":47,"time_elapsed":118949,"internal_node_id":"0.0-1.0-1.22-0.22"},{"rt":3493.720000027679,"stimulus":"audio/actual/s5-lecture-10_jean_saigne_beaucoup-5_cut1norm.mp3","button_pressed":"2","test_part":"test","phrase":"10","condition":"lecture","subject":"s5","trial_type":"audio-button-response","trial_index":49,"time_elapsed":122752,"internal_node_id":"0.0-1.0-0.23"},{"rt":1911.2650000024587,"stimulus":"audio/actual/s5-lecture-10_jean_saigne_beaucoup-5_cut1norm.mp3","button_pressed":"0","test_part":"test","phrase":"10","condition":"lecture","subject":"s5","trial_type":"audio-button-response","trial_index":50,"time_elapsed":124667,"internal_node_id":"0.0-1.0-1.23-0.23"},{"rt":1730.640000081621,"stimulus":"audio/actual/s9-imitation-10bis_jenseigne_beaucoup-5_cut1norm.mp3","button_pressed":"1","test_part":"test","phrase":"10bis","condition":"imitation","subject":"s9","trial_type":"audio-button-response","trial_index":52,"time_elapsed":126673,"internal_node_id":"0.0-1.0-0.24"},{"rt":1732.3649999452755,"stimulus":"audio/actual/s2-imitation-10bis_jenseigne_beaucoup-5_cut1norm.mp3","button_pressed":"1","test_part":"test","phrase":"10bis","condition":"imitation","subject":"s2","trial_type":"audio-button-response","trial_index":54,"time_elapsed":128664,"internal_node_id":"0.0-1.0-0.25"},{"rt":2028.349999920465,"stimulus":"audio/actual/s6-imitation-10bis_jenseigne_beaucoup-4_cut1norm.mp3","button_pressed":"1","test_part":"test","phrase":"10bis","condition":"imitation","subject":"s6","trial_type":"audio-button-response","trial_index":56,"time_elapsed":130980,"internal_node_id":"0.0-1.0-0.26"},{"rt":2539.935000007972,"stimulus":"audio/actual/s2-guide-10_jean_saigne_beaucoup.mp3","button_pressed":"0","test_part":"test","phrase":"10","condition":"guide","subject":"s2","trial_type":"audio-button-response","trial_index":58,"time_elapsed":133864,"internal_node_id":"0.0-1.0-0.27"},{"rt":4830.170000088401,"stimulus":"audio/actual/s10-blind-10_jean_saigne_beaucoup.mp3","button_pressed":"0","test_part":"test","phrase":"10","condition":"blind","subject":"s10","trial_type":"audio-button-response","trial_index":60,"time_elapsed":138969,"internal_node_id":"0.0-1.0-0.28"},{"rt":1767.9250000510365,"stimulus":"audio/actual/s2-blind-10bis_jenseigne_beaucoup.mp3","button_pressed":"1","test_part":"test","phrase":"10bis","condition":"blind","subject":"s2","trial_type":"audio-button-response","trial_index":62,"time_elapsed":141022,"internal_node_id":"0.0-1.0-0.29"},{"rt":3757.300000055693,"stimulus":"audio/actual/s3-lecture-10bis_jenseigne_beaucoup-3_cut1norm.mp3","button_pressed":"1","test_part":"test","phrase":"10bis","condition":"lecture","subject":"s3","trial_type":"audio-button-response","trial_index":64,"time_elapsed":145022,"internal_node_id":"0.0-1.0-0.30"},{"rt":1995.5150000751019,"stimulus":"audio/actual/s9-guide-10_jean_saigne_beaucoup.mp3","button_pressed":"0","test_part":"test","phrase":"10","condition":"guide","subject":"s9","trial_type":"audio-button-response","trial_index":66,"time_elapsed":147206,"internal_node_id":"0.0-1.0-0.31"},{"rt":1827.915000030771,"stimulus":"audio/actual/s10-imitation-10_jean_saigne_beaucoup-11_cut1norm.mp3","button_pressed":"0","test_part":"test","phrase":"10","condition":"imitation","subject":"s10","trial_type":"audio-button-response","trial_index":68,"time_elapsed":149267,"internal_node_id":"0.0-1.0-0.32"},{"rt":1899.5099999010563,"stimulus":"audio/actual/s4-imitation-10_jean_saigne_beaucoup-1_cut1norm.mp3","button_pressed":"0","test_part":"test","phrase":"10","condition":"imitation","subject":"s4","trial_type":"audio-button-response","trial_index":70,"time_elapsed":151495,"internal_node_id":"0.0-1.0-0.33"},{"rt":1741.5050000417978,"stimulus":"audio/actual/s6-imitation-10_jean_saigne_beaucoup-5_cut1norm.mp3","button_pressed":"0","test_part":"test","phrase":"10","condition":"imitation","subject":"s6","trial_type":"audio-button-response","trial_index":72,"time_elapsed":153546,"internal_node_id":"0.0-1.0-0.34"},{"rt":1588.3149999426678,"stimulus":"audio/actual/s4-imitation-10bis_jenseigne_beaucoup-0_cut1norm.mp3","button_pressed":"1","test_part":"test","phrase":"10bis","condition":"imitation","subject":"s4","trial_type":"audio-button-response","trial_index":74,"time_elapsed":155469,"internal_node_id":"0.0-1.0-0.35"},{"rt":1450.5900000222027,"stimulus":"audio/actual/s5-imitation-10bis_jenseigne_beaucoup-11_cut1norm.mp3","button_pressed":"1","test_part":"test","phrase":"10bis","condition":"imitation","subject":"s5","trial_type":"audio-button-response","trial_index":76,"time_elapsed":157192,"internal_node_id":"0.0-1.0-0.36"},{"rt":2349.2199999745935,"stimulus":"audio/actual/s10-guide-10_jean_saigne_beaucoup.mp3","button_pressed":"0","test_part":"test","phrase":"10","condition":"guide","subject":"s10","trial_type":"audio-button-response","trial_index":78,"time_elapsed":159795,"internal_node_id":"0.0-1.0-0.37"},{"rt":2741.050000069663,"stimulus":"audio/actual/s8-imitation-10_jean_saigne_beaucoup-10_cut1norm.mp3","button_pressed":"0","test_part":"test","phrase":"10","condition":"imitation","subject":"s8","trial_type":"audio-button-response","trial_index":80,"time_elapsed":162871,"internal_node_id":"0.0-1.0-0.38"},{"rt":1782.9250000650063,"stimulus":"audio/actual/s10-imitation-10bis_jenseigne_beaucoup-10_cut1norm.mp3","button_pressed":"0","test_part":"test","phrase":"10bis","condition":"imitation","subject":"s10","trial_type":"audio-button-response","trial_index":82,"time_elapsed":164867,"internal_node_id":"0.0-1.0-0.39"},{"rt":1913.4899999480695,"stimulus":"audio/actual/s8-guide-10_jean_saigne_beaucoup.mp3","button_pressed":"0","test_part":"test","phrase":"10","condition":"guide","subject":"s8","trial_type":"audio-button-response","trial_index":84,"time_elapsed":167098,"internal_node_id":"0.0-1.0-0.40"},{"rt":1691.39500008896,"stimulus":"audio/actual/s7-imitation-10bis_jenseigne_beaucoup-2_cut1norm.mp3","button_pressed":"1","test_part":"test","phrase":"10bis","condition":"imitation","subject":"s7","trial_type":"audio-button-response","trial_index":86,"time_elapsed":169063,"internal_node_id":"0.0-1.0-0.41"},{"rt":1213.3649999741465,"stimulus":"audio/actual/s8-imitation-10bis_jenseigne_beaucoup-11_cut1norm.mp3","button_pressed":"1","test_part":"test","phrase":"10bis","condition":"imitation","subject":"s8","trial_type":"audio-button-response","trial_index":88,"time_elapsed":170482,"internal_node_id":"0.0-1.0-0.42"},{"rt":2068.8800000352785,"stimulus":"audio/actual/s4-lecture-10_jean_saigne_beaucoup-1_cut1norm.mp3","button_pressed":"0","test_part":"test","phrase":"10","condition":"lecture","subject":"s4","trial_type":"audio-button-response","trial_index":90,"time_elapsed":172837,"internal_node_id":"0.0-1.0-0.43"},{"rt":3345.924999914132,"stimulus":"audio/actual/s8-lecture-10_jean_saigne_beaucoup-10_cut1norm.mp3","button_pressed":"0","test_part":"test","phrase":"10","condition":"lecture","subject":"s8","trial_type":"audio-button-response","trial_index":92,"time_elapsed":176491,"internal_node_id":"0.0-1.0-0.44"},{"rt":2043.6999999219552,"stimulus":"audio/actual/s2-imitation-10_jean_saigne_beaucoup-4_cut1norm.mp3","button_pressed":"0","test_part":"test","phrase":"10","condition":"imitation","subject":"s2","trial_type":"audio-button-response","trial_index":94,"time_elapsed":178777,"internal_node_id":"0.0-1.0-0.45"},{"rt":1674.4900000048801,"stimulus":"audio/actual/s7-blind-10_jean_saigne_beaucoup.mp3","button_pressed":"0","test_part":"test","phrase":"10","condition":"blind","subject":"s7","trial_type":"audio-button-response","trial_index":96,"time_elapsed":180735,"internal_node_id":"0.0-1.0-0.46"},{"rt":2806.1899999156594,"stimulus":"audio/actual/s3-lecture-10_jean_saigne_beaucoup-2_cut1norm.mp3","button_pressed":"0","test_part":"test","phrase":"10","condition":"lecture","subject":"s3","trial_type":"audio-button-response","trial_index":98,"time_elapsed":183848,"internal_node_id":"0.0-1.0-0.47"},{"rt":2498.240000102669,"stimulus":"audio/actual/s5-blind-10bis_jenseigne_beaucoup.mp3","button_pressed":"1","test_part":"test","phrase":"10bis","condition":"blind","subject":"s5","trial_type":"audio-button-response","trial_index":100,"time_elapsed":186629,"internal_node_id":"0.0-1.0-0.48"},{"rt":2696.165000088513,"stimulus":"audio/actual/s7-lecture-10bis_jenseigne_beaucoup-9_cut1norm.mp3","button_pressed":"1","test_part":"test","phrase":"10bis","condition":"lecture","subject":"s7","trial_type":"audio-button-response","trial_index":102,"time_elapsed":189511,"internal_node_id":"0.0-1.0-0.49"},{"rt":2489.895000006072,"stimulus":"audio/actual/s8-blind-10_jean_saigne_beaucoup.mp3","button_pressed":"1","test_part":"test","phrase":"10","condition":"blind","subject":"s8","trial_type":"audio-button-response","trial_index":104,"time_elapsed":192220,"internal_node_id":"0.0-1.0-0.50"},{"rt":4646.855000057258,"stimulus":"audio/actual/s1-guide-10_jean_saigne_beaucoup.mp3","button_pressed":"0","test_part":"test","phrase":"10","condition":"guide","subject":"s1","trial_type":"audio-button-response","trial_index":106,"time_elapsed":197108,"internal_node_id":"0.0-1.0-0.51"},{"rt":2533.7199999485165,"stimulus":"audio/actual/s6-blind-10_jean_saigne_beaucoup.mp3","button_pressed":"1","test_part":"test","phrase":"10","condition":"blind","subject":"s6","trial_type":"audio-button-response","trial_index":108,"time_elapsed":199823,"internal_node_id":"0.0-1.0-0.52"},{"rt":2991.069999989122,"stimulus":"audio/actual/s1-blind-10bis_jenseigne_beaucoup.mp3","button_pressed":"1","test_part":"test","phrase":"10bis","condition":"blind","subject":"s1","trial_type":"audio-button-response","trial_index":110,"time_elapsed":202996,"internal_node_id":"0.0-1.0-0.53"},{"rt":1866.150000016205,"stimulus":"audio/actual/s5-blind-10_jean_saigne_beaucoup.mp3","button_pressed":"1","test_part":"test","phrase":"10","condition":"blind","subject":"s5","trial_type":"audio-button-response","trial_index":112,"time_elapsed":205031,"internal_node_id":"0.0-1.0-0.54"},{"rt":1719.9949999339879,"stimulus":"audio/actual/s9-imitation-10_jean_saigne_beaucoup-4_cut1norm.mp3","button_pressed":"0","test_part":"test","phrase":"10","condition":"imitation","subject":"s9","trial_type":"audio-button-response","trial_index":114,"time_elapsed":207031,"internal_node_id":"0.0-1.0-0.55"},{"rt":1542.4199999542907,"stimulus":"audio/actual/s5-lecture-10bis_jenseigne_beaucoup-4_cut1norm.mp3","button_pressed":"1","test_part":"test","phrase":"10bis","condition":"lecture","subject":"s5","trial_type":"audio-button-response","trial_index":116,"time_elapsed":208811,"internal_node_id":"0.0-1.0-0.56"},{"rt":1472.345000016503,"stimulus":"audio/actual/s10-lecture-10bis_jenseigne_beaucoup-11_cut1norm.mp3","button_pressed":"1","test_part":"test","phrase":"10bis","condition":"lecture","subject":"s10","trial_type":"audio-button-response","trial_index":118,"time_elapsed":210429,"internal_node_id":"0.0-1.0-0.57"},{"rt":3097.8749999776483,"stimulus":"audio/actual/s1-guide-10bis_jenseigne_beaucoup.mp3","button_pressed":"1","test_part":"test","phrase":"10bis","condition":"guide","subject":"s1","trial_type":"audio-button-response","trial_index":120,"time_elapsed":213700,"internal_node_id":"0.0-1.0-0.58"},{"rt":3552.2900000214577,"stimulus":"audio/actual/s4-lecture-10bis_jenseigne_beaucoup-0_cut1norm.mp3","button_pressed":"1","test_part":"test","phrase":"10bis","condition":"lecture","subject":"s4","trial_type":"audio-button-response","trial_index":122,"time_elapsed":217455,"internal_node_id":"0.0-1.0-0.59"},{"rt":2627.2299999836832,"stimulus":"audio/actual/s8-guide-10bis_jenseigne_beaucoup.mp3","button_pressed":"1","test_part":"test","phrase":"10bis","condition":"guide","subject":"s8","trial_type":"audio-button-response","trial_index":124,"time_elapsed":220291,"internal_node_id":"0.0-1.0-0.60"},{"rt":1914.9400000460446,"stimulus":"audio/actual/s6-guide-10bis_jenseigne_beaucoup.mp3","button_pressed":"1","test_part":"test","phrase":"10bis","condition":"guide","subject":"s6","trial_type":"audio-button-response","trial_index":126,"time_elapsed":222336,"internal_node_id":"0.0-1.0-0.61"},{"rt":4121.259999927133,"stimulus":"audio/actual/s4-blind-10bis_jenseigne_beaucoup.mp3","button_pressed":"1","test_part":"test","phrase":"10bis","condition":"blind","subject":"s4","trial_type":"audio-button-response","trial_index":128,"time_elapsed":226632,"internal_node_id":"0.0-1.0-0.62"},{"rt":1434.9900000961497,"stimulus":"audio/actual/s5-guide-10bis_jenseigne_beaucoup.mp3","button_pressed":"1","test_part":"test","phrase":"10bis","condition":"guide","subject":"s5","trial_type":"audio-button-response","trial_index":130,"time_elapsed":228248,"internal_node_id":"0.0-1.0-0.63"},{"rt":2835.190000012517,"stimulus":"audio/actual/s7-blind-10bis_jenseigne_beaucoup.mp3","button_pressed":"1","test_part":"test","phrase":"10bis","condition":"blind","subject":"s7","trial_type":"audio-button-response","trial_index":132,"time_elapsed":231452,"internal_node_id":"0.0-1.0-0.64"},{"rt":1933.119999943301,"stimulus":"audio/actual/s9-guide-10bis_jenseigne_beaucoup.mp3","button_pressed":"1","test_part":"test","phrase":"10bis","condition":"guide","subject":"s9","trial_type":"audio-button-response","trial_index":134,"time_elapsed":233535,"internal_node_id":"0.0-1.0-0.65"},{"rt":3195.839999942109,"stimulus":"audio/actual/s2-lecture-10bis_jenseigne_beaucoup-6_cut1norm.mp3","button_pressed":"1","test_part":"test","phrase":"10bis","condition":"lecture","subject":"s2","trial_type":"audio-button-response","trial_index":136,"time_elapsed":236948,"internal_node_id":"0.0-1.0-0.66"},{"rt":2272.7399999275804,"stimulus":"audio/actual/s3-guide-10_jean_saigne_beaucoup.mp3","button_pressed":"0","test_part":"test","phrase":"10","condition":"guide","subject":"s3","trial_type":"audio-button-response","trial_index":138,"time_elapsed":239360,"internal_node_id":"0.0-1.0-0.67"},{"rt":3412.92999999132,"stimulus":"audio/actual/s1-lecture-10bis_jenseigne_beaucoup-3_cut1norm.mp3","button_pressed":"1","test_part":"test","phrase":"10bis","condition":"lecture","subject":"s1","trial_type":"audio-button-response","trial_index":140,"time_elapsed":242988,"internal_node_id":"0.0-1.0-0.68"},{"rt":2547.2650000592694,"stimulus":"audio/actual/s3-imitation-10_jean_saigne_beaucoup-2_cut1norm.mp3","button_pressed":"0","test_part":"test","phrase":"10","condition":"imitation","subject":"s3","trial_type":"audio-button-response","trial_index":142,"time_elapsed":245760,"internal_node_id":"0.0-1.0-0.69"},{"rt":2134.9199999822304,"stimulus":"audio/actual/s4-guide-10bis_jenseigne_beaucoup.mp3","button_pressed":"1","test_part":"test","phrase":"10bis","condition":"guide","subject":"s4","trial_type":"audio-button-response","trial_index":144,"time_elapsed":248744,"internal_node_id":"0.0-1.0-0.70"},{"rt":1674.4249999755993,"stimulus":"audio/actual/s3-blind-10bis_jenseigne_beaucoup.mp3","button_pressed":"1","test_part":"test","phrase":"10bis","condition":"blind","subject":"s3","trial_type":"audio-button-response","trial_index":146,"time_elapsed":251134,"internal_node_id":"0.0-1.0-0.71"},{"rt":2655.2750000264496,"stimulus":"audio/actual/s7-guide-10_jean_saigne_beaucoup.mp3","button_pressed":"0","test_part":"test","phrase":"10","condition":"guide","subject":"s7","trial_type":"audio-button-response","trial_index":148,"time_elapsed":254089,"internal_node_id":"0.0-1.0-0.72"},{"rt":2233.3400000352412,"stimulus":"audio/actual/s2-guide-10bis_jenseigne_beaucoup.mp3","button_pressed":"1","test_part":"test","phrase":"10bis","condition":"guide","subject":"s2","trial_type":"audio-button-response","trial_index":150,"time_elapsed":256806,"internal_node_id":"0.0-1.0-0.73"},{"rt":4183.644999982789,"stimulus":"audio/actual/s1-lecture-10_jean_saigne_beaucoup-2_cut1norm.mp3","button_pressed":"1","test_part":"test","phrase":"10","condition":"lecture","subject":"s1","trial_type":"audio-button-response","trial_index":152,"time_elapsed":261324,"internal_node_id":"0.0-1.0-0.74"},{"rt":1738.6149999219924,"stimulus":"audio/actual/s6-lecture-10bis_jenseigne_beaucoup-0_cut1norm.mp3","button_pressed":"1","test_part":"test","phrase":"10bis","condition":"lecture","subject":"s6","trial_type":"audio-button-response","trial_index":154,"time_elapsed":263340,"internal_node_id":"0.0-1.0-0.75"},{"rt":1476.5399999450892,"stimulus":"audio/actual/s7-guide-10bis_jenseigne_beaucoup.mp3","button_pressed":"1","test_part":"test","phrase":"10bis","condition":"guide","subject":"s7","trial_type":"audio-button-response","trial_index":156,"time_elapsed":265079,"internal_node_id":"0.0-1.0-0.76"},{"rt":2997.1599999116734,"stimulus":"audio/actual/s5-guide-10_jean_saigne_beaucoup.mp3","button_pressed":"0","test_part":"test","phrase":"10","condition":"guide","subject":"s5","trial_type":"audio-button-response","trial_index":158,"time_elapsed":268332,"internal_node_id":"0.0-1.0-0.77"},{"rt":1926.4950000215322,"stimulus":"audio/actual/s2-lecture-10_jean_saigne_beaucoup-7_cut1norm.mp3","button_pressed":"0","test_part":"test","phrase":"10","condition":"lecture","subject":"s2","trial_type":"audio-button-response","trial_index":160,"time_elapsed":270495,"internal_node_id":"0.0-1.0-0.78"},{"rt":2098.354999907315,"stimulus":"audio/actual/s6-blind-10bis_jenseigne_beaucoup.mp3","button_pressed":"0","test_part":"test","phrase":"10bis","condition":"blind","subject":"s6","trial_type":"audio-button-response","trial_index":162,"time_elapsed":273115,"internal_node_id":"0.0-1.0-0.79"}]