[{"rt":2604.909999994561,"stimulus":"audio/actual/s9-lecture-10_jean_saigne_beaucoup-3_cut1norm.mp3","button_pressed":"0","test_part":"test","phrase":"10","condition":"lecture","subject":"s9","trial_type":"audio-button-response","trial_index":1,"time_elapsed":6251,"internal_node_id":"0.0-1.0-0.0"},{"rt":2777.3549999983516,"stimulus":"audio/actual/s4-lecture-10bis_jenseigne_beaucoup-0_cut1norm.mp3","button_pressed":"1","test_part":"test","phrase":"10bis","condition":"lecture","subject":"s4","trial_type":"audio-button-response","trial_index":3,"time_elapsed":10465,"internal_node_id":"0.0-1.0-0.1"},{"rt":3250.995000009425,"stimulus":"audio/actual/s6-imitation-10bis_jenseigne_beaucoup-4_cut1norm.mp3","button_pressed":"1","test_part":"test","phrase":"10bis","condition":"imitation","subject":"s6","trial_type":"audio-button-response","trial_index":5,"time_elapsed":15080,"internal_node_id":"0.0-1.0-0.2"},{"rt":2062.9750000080094,"stimulus":"audio/actual/s2-imitation-10_jean_saigne_beaucoup-4_cut1norm.mp3","button_pressed":"0","test_part":"test","phrase":"10","condition":"imitation","subject":"s2","trial_type":"audio-button-response","trial_index":7,"time_elapsed":18047,"internal_node_id":"0.0-1.0-0.3"},{"rt":2810.0200000044424,"stimulus":"audio/actual/s8-guide-10_jean_saigne_beaucoup.mp3","button_pressed":"0","test_part":"test","phrase":"10","condition":"guide","subject":"s8","trial_type":"audio-button-response","trial_index":9,"time_elapsed":21732,"internal_node_id":"0.0-1.0-0.4"},{"rt":1389.6649999951478,"stimulus":"audio/actual/s9-imitation-10bis_jenseigne_beaucoup-5_cut1norm.mp3","button_pressed":"1","test_part":"test","phrase":"10bis","condition":"imitation","subject":"s9","trial_type":"audio-button-response","trial_index":11,"time_elapsed":23956,"internal_node_id":"0.0-1.0-0.5"},{"rt":1684.399999998277,"stimulus":"audio/actual/s8-lecture-10bis_jenseigne_beaucoup-11_cut1norm.mp3","button_pressed":"1","test_part":"test","phrase":"10bis","condition":"lecture","subject":"s8","trial_type":"audio-button-response","trial_index":13,"time_elapsed":26313,"internal_node_id":"0.0-1.0-0.6"},{"rt":3490.270000009332,"stimulus":"audio/actual/s7-guide-10bis_jenseigne_beaucoup.mp3","button_pressed":"1","test_part":"test","phrase":"10bis","condition":"guide","subject":"s7","trial_type":"audio-button-response","trial_index":15,"time_elapsed":31064,"internal_node_id":"0.0-1.0-0.7"},{"rt":1837.4500000209082,"stimulus":"audio/actual/s2-guide-10bis_jenseigne_beaucoup.mp3","button_pressed":"1","test_part":"test","phrase":"10bis","condition":"guide","subject":"s2","trial_type":"audio-button-response","trial_index":17,"time_elapsed":33635,"internal_node_id":"0.0-1.0-0.8"},{"rt":3708.985000004759,"stimulus":"audio/actual/s6-lecture-10bis_jenseigne_beaucoup-0_cut1norm.mp3","button_pressed":"1","test_part":"test","phrase":"10bis","condition":"lecture","subject":"s6","trial_type":"audio-button-response","trial_index":19,"time_elapsed":37994,"internal_node_id":"0.0-1.0-0.9"},{"rt":3230.8800000173505,"stimulus":"audio/actual/s10-guide-10bis_jenseigne_beaucoup.mp3","button_pressed":"1","test_part":"test","phrase":"10bis","condition":"guide","subject":"s10","trial_type":"audio-button-response","trial_index":21,"time_elapsed":41719,"internal_node_id":"0.0-1.0-0.10"},{"rt":4699.024999979883,"stimulus":"audio/actual/s9-guide-10_jean_saigne_beaucoup.mp3","button_pressed":"1","test_part":"test","phrase":"10","condition":"guide","subject":"s9","trial_type":"audio-button-response","trial_index":23,"time_elapsed":47377,"internal_node_id":"0.0-1.0-0.11"},{"rt":2018.1250000023283,"stimulus":"audio/actual/s8-lecture-10_jean_saigne_beaucoup-10_cut1norm.mp3","button_pressed":"0","test_part":"test","phrase":"10","condition":"lecture","subject":"s8","trial_type":"audio-button-response","trial_index":25,"time_elapsed":49898,"internal_node_id":"0.0-1.0-0.12"},{"rt":2907.0000000065193,"stimulus":"audio/actual/s10-imitation-10_jean_saigne_beaucoup-11_cut1norm.mp3","button_pressed":"0","test_part":"test","phrase":"10","condition":"imitation","subject":"s10","trial_type":"audio-button-response","trial_index":27,"time_elapsed":53729,"internal_node_id":"0.0-1.0-0.13"},{"rt":1412.110000004759,"stimulus":"audio/actual/s8-blind-10bis_jenseigne_beaucoup.mp3","button_pressed":"1","test_part":"test","phrase":"10bis","condition":"blind","subject":"s8","trial_type":"audio-button-response","trial_index":29,"time_elapsed":55670,"internal_node_id":"0.0-1.0-0.14"},{"rt":3739.0549999836367,"stimulus":"audio/actual/s9-blind-10_jean_saigne_beaucoup.mp3","button_pressed":"0","test_part":"test","phrase":"10","condition":"blind","subject":"s9","trial_type":"audio-button-response","trial_index":31,"time_elapsed":59827,"internal_node_id":"0.0-1.0-0.15"},{"rt":3141.604999982519,"stimulus":"audio/actual/s5-lecture-10bis_jenseigne_beaucoup-4_cut1norm.mp3","button_pressed":"0","test_part":"test","phrase":"10bis","condition":"lecture","subject":"s5","trial_type":"audio-button-response","trial_index":33,"time_elapsed":63633,"internal_node_id":"0.0-1.0-0.16"},{"rt":2530.2950000041164,"stimulus":"audio/actual/s10-blind-10bis_jenseigne_beaucoup.mp3","button_pressed":"1","test_part":"test","phrase":"10bis","condition":"blind","subject":"s10","trial_type":"audio-button-response","trial_index":35,"time_elapsed":66754,"internal_node_id":"0.0-1.0-0.17"},{"rt":3495.970000018133,"stimulus":"audio/actual/s7-blind-10_jean_saigne_beaucoup.mp3","button_pressed":"0","test_part":"test","phrase":"10","condition":"blind","subject":"s7","trial_type":"audio-button-response","trial_index":37,"time_elapsed":71090,"internal_node_id":"0.0-1.0-0.18"},{"rt":4397.475000005215,"stimulus":"audio/actual/s6-guide-10bis_jenseigne_beaucoup.mp3","button_pressed":"1","test_part":"test","phrase":"10bis","condition":"guide","subject":"s6","trial_type":"audio-button-response","trial_index":39,"time_elapsed":76011,"internal_node_id":"0.0-1.0-0.19"},{"rt":4500.475000008009,"stimulus":"audio/actual/s10-blind-10_jean_saigne_beaucoup.mp3","button_pressed":"1","test_part":"test","phrase":"10","condition":"blind","subject":"s10","trial_type":"audio-button-response","trial_index":41,"time_elapsed":81053,"internal_node_id":"0.0-1.0-0.20"},{"rt":2016.814999980852,"stimulus":"audio/actual/s9-blind-10bis_jenseigne_beaucoup.mp3","button_pressed":"1","test_part":"test","phrase":"10bis","condition":"blind","subject":"s9","trial_type":"audio-button-response","trial_index":43,"time_elapsed":84387,"internal_node_id":"0.0-1.0-0.21"},{"rt":1485.6150000123307,"stimulus":"audio/actual/s8-imitation-10bis_jenseigne_beaucoup-11_cut1norm.mp3","button_pressed":"1","test_part":"test","phrase":"10bis","condition":"imitation","subject":"s8","trial_type":"audio-button-response","trial_index":45,"time_elapsed":86474,"internal_node_id":"0.0-1.0-0.22"},{"rt":1626.9000000029337,"stimulus":"audio/actual/s5-guide-10bis_jenseigne_beaucoup.mp3","button_pressed":"1","test_part":"test","phrase":"10bis","condition":"guide","subject":"s5","trial_type":"audio-button-response","trial_index":47,"time_elapsed":88605,"internal_node_id":"0.0-1.0-0.23"},{"rt":1696.5199999976903,"stimulus":"audio/actual/s8-imitation-10_jean_saigne_beaucoup-10_cut1norm.mp3","button_pressed":"0","test_part":"test","phrase":"10","condition":"imitation","subject":"s8","trial_type":"audio-button-response","trial_index":49,"time_elapsed":90716,"internal_node_id":"0.0-1.0-0.24"},{"rt":2371.2349999987055,"stimulus":"audio/actual/s5-lecture-10_jean_saigne_beaucoup-5_cut1norm.mp3","button_pressed":"0","test_part":"test","phrase":"10","condition":"lecture","subject":"s5","trial_type":"audio-button-response","trial_index":51,"time_elapsed":93637,"internal_node_id":"0.0-1.0-0.25"},{"rt":2423.3900000108406,"stimulus":"audio/actual/s4-blind-10bis_jenseigne_beaucoup.mp3","button_pressed":"1","test_part":"test","phrase":"10bis","condition":"blind","subject":"s4","trial_type":"audio-button-response","trial_index":53,"time_elapsed":96541,"internal_node_id":"0.0-1.0-0.26"},{"rt":6757.775000005495,"stimulus":"audio/actual/s7-imitation-10bis_jenseigne_beaucoup-2_cut1norm.mp3","button_pressed":"2","test_part":"test","phrase":"10bis","condition":"imitation","subject":"s7","trial_type":"audio-button-response","trial_index":55,"time_elapsed":103754,"internal_node_id":"0.0-1.0-0.27"},{"rt":2517.330000002403,"stimulus":"audio/actual/s7-imitation-10bis_jenseigne_beaucoup-2_cut1norm.mp3","button_pressed":"1","test_part":"test","phrase":"10bis","condition":"imitation","subject":"s7","trial_type":"audio-button-response","trial_index":56,"time_elapsed":106273,"internal_node_id":"0.0-1.0-1.27-0.27"},{"rt":2571.34500000393,"stimulus":"audio/actual/s4-lecture-10_jean_saigne_beaucoup-1_cut1norm.mp3","button_pressed":"0","test_part":"test","phrase":"10","condition":"lecture","subject":"s4","trial_type":"audio-button-response","trial_index":58,"time_elapsed":109408,"internal_node_id":"0.0-1.0-0.28"},{"rt":3419.060000014724,"stimulus":"audio/actual/s3-blind-10bis_jenseigne_beaucoup.mp3","button_pressed":"0","test_part":"test","phrase":"10bis","condition":"blind","subject":"s3","trial_type":"audio-button-response","trial_index":60,"time_elapsed":113374,"internal_node_id":"0.0-1.0-0.29"},{"rt":7527.269999991404,"stimulus":"audio/actual/s6-guide-10_jean_saigne_beaucoup.mp3","button_pressed":"0","test_part":"test","phrase":"10","condition":"guide","subject":"s6","trial_type":"audio-button-response","trial_index":62,"time_elapsed":121417,"internal_node_id":"0.0-1.0-0.30"},{"rt":2641.9450000103097,"stimulus":"audio/actual/s3-lecture-10_jean_saigne_beaucoup-2_cut1norm.mp3","button_pressed":"0","test_part":"test","phrase":"10","condition":"lecture","subject":"s3","trial_type":"audio-button-response","trial_index":64,"time_elapsed":124839,"internal_node_id":"0.0-1.0-0.31"},{"rt":2653.6900000064634,"stimulus":"audio/actual/s1-guide-10_jean_saigne_beaucoup.mp3","button_pressed":"0","test_part":"test","phrase":"10","condition":"guide","subject":"s1","trial_type":"audio-button-response","trial_index":66,"time_elapsed":128006,"internal_node_id":"0.0-1.0-0.32"},{"rt":1948.2950000092387,"stimulus":"audio/actual/s9-imitation-10_jean_saigne_beaucoup-4_cut1norm.mp3","button_pressed":"0","test_part":"test","phrase":"10","condition":"imitation","subject":"s9","trial_type":"audio-button-response","trial_index":68,"time_elapsed":130388,"internal_node_id":"0.0-1.0-0.33"},{"rt":2120.1400000136346,"stimulus":"audio/actual/s1-blind-10_jean_saigne_beaucoup.mp3","button_pressed":"0","test_part":"test","phrase":"10","condition":"blind","subject":"s1","trial_type":"audio-button-response","trial_index":70,"time_elapsed":132986,"internal_node_id":"0.0-1.0-0.34"},{"rt":1743.5549999936484,"stimulus":"audio/actual/s4-imitation-10bis_jenseigne_beaucoup-0_cut1norm.mp3","button_pressed":"0","test_part":"test","phrase":"10bis","condition":"imitation","subject":"s4","trial_type":"audio-button-response","trial_index":72,"time_elapsed":135196,"internal_node_id":"0.0-1.0-0.35"},{"rt":3903.040000004694,"stimulus":"audio/actual/s6-imitation-10_jean_saigne_beaucoup-5_cut1norm.mp3","button_pressed":"0","test_part":"test","phrase":"10","condition":"imitation","subject":"s6","trial_type":"audio-button-response","trial_index":74,"time_elapsed":139566,"internal_node_id":"0.0-1.0-0.36"},{"rt":1666.079999995418,"stimulus":"audio/actual/s1-imitation-10_jean_saigne_beaucoup-11_cut1norm.mp3","button_pressed":"0","test_part":"test","phrase":"10","condition":"imitation","subject":"s1","trial_type":"audio-button-response","trial_index":76,"time_elapsed":141669,"internal_node_id":"0.0-1.0-0.37"},{"rt":3280.5649999936577,"stimulus":"audio/actual/s9-lecture-10bis_jenseigne_beaucoup-2_cut1norm.mp3","button_pressed":"1","test_part":"test","phrase":"10bis","condition":"lecture","subject":"s9","trial_type":"audio-button-response","trial_index":78,"time_elapsed":145389,"internal_node_id":"0.0-1.0-0.38"},{"rt":1911.7149999947287,"stimulus":"audio/actual/s8-guide-10bis_jenseigne_beaucoup.mp3","button_pressed":"1","test_part":"test","phrase":"10bis","condition":"guide","subject":"s8","trial_type":"audio-button-response","trial_index":80,"time_elapsed":147907,"internal_node_id":"0.0-1.0-0.39"},{"rt":2090.1149999990594,"stimulus":"audio/actual/s2-lecture-10_jean_saigne_beaucoup-7_cut1norm.mp3","button_pressed":"0","test_part":"test","phrase":"10","condition":"lecture","subject":"s2","trial_type":"audio-button-response","trial_index":82,"time_elapsed":150412,"internal_node_id":"0.0-1.0-0.40"},{"rt":1302.9850000166334,"stimulus":"audio/actual/s5-imitation-10bis_jenseigne_beaucoup-11_cut1norm.mp3","button_pressed":"0","test_part":"test","phrase":"10bis","condition":"imitation","subject":"s5","trial_type":"audio-button-response","trial_index":84,"time_elapsed":152203,"internal_node_id":"0.0-1.0-0.41"},{"rt":5179.460000013933,"stimulus":"audio/actual/s4-guide-10_jean_saigne_beaucoup.mp3","button_pressed":"0","test_part":"test","phrase":"10","condition":"guide","subject":"s4","trial_type":"audio-button-response","trial_index":86,"time_elapsed":157777,"internal_node_id":"0.0-1.0-0.42"},{"rt":8844.515000004321,"stimulus":"audio/actual/s1-guide-10bis_jenseigne_beaucoup.mp3","button_pressed":"2","test_part":"test","phrase":"10bis","condition":"guide","subject":"s1","trial_type":"audio-button-response","trial_index":88,"time_elapsed":167344,"internal_node_id":"0.0-1.0-0.43"},{"rt":4709.645000024466,"stimulus":"audio/actual/s1-guide-10bis_jenseigne_beaucoup.mp3","button_pressed":"0","test_part":"test","phrase":"10bis","condition":"guide","subject":"s1","trial_type":"audio-button-response","trial_index":89,"time_elapsed":172056,"internal_node_id":"0.0-1.0-1.43-0.43"},{"rt":3409.0049999940675,"stimulus":"audio/actual/s3-blind-10_jean_saigne_beaucoup.mp3","button_pressed":"0","test_part":"test","phrase":"10","condition":"blind","subject":"s3","trial_type":"audio-button-response","trial_index":91,"time_elapsed":176863,"internal_node_id":"0.0-1.0-0.44"},{"rt":3329.1999999783,"stimulus":"audio/actual/s1-lecture-10bis_jenseigne_beaucoup-3_cut1norm.mp3","button_pressed":"1","test_part":"test","phrase":"10bis","condition":"lecture","subject":"s1","trial_type":"audio-button-response","trial_index":93,"time_elapsed":181198,"internal_node_id":"0.0-1.0-0.45"},{"rt":2687.9899999767076,"stimulus":"audio/actual/s3-guide-10_jean_saigne_beaucoup.mp3","button_pressed":"0","test_part":"test","phrase":"10","condition":"guide","subject":"s3","trial_type":"audio-button-response","trial_index":95,"time_elapsed":184890,"internal_node_id":"0.0-1.0-0.46"},{"rt":5844.959999987623,"stimulus":"audio/actual/s6-blind-10_jean_saigne_beaucoup.mp3","button_pressed":"2","test_part":"test","phrase":"10","condition":"blind","subject":"s6","trial_type":"audio-button-response","trial_index":97,"time_elapsed":191273,"internal_node_id":"0.0-1.0-0.47"},{"rt":2680.5250000033993,"stimulus":"audio/actual/s6-blind-10_jean_saigne_beaucoup.mp3","button_pressed":"0","test_part":"test","phrase":"10","condition":"blind","subject":"s6","trial_type":"audio-button-response","trial_index":98,"time_elapsed":193956,"internal_node_id":"0.0-1.0-1.47-0.47"},{"rt":6951.194999972358,"stimulus":"audio/actual/s3-imitation-10bis_jenseigne_beaucoup-3_cut1norm.mp3","button_pressed":"2","test_part":"test","phrase":"10bis","condition":"imitation","subject":"s3","trial_type":"audio-button-response","trial_index":100,"time_elapsed":201607,"internal_node_id":"0.0-1.0-0.48"},{"rt":3277.9499999887776,"stimulus":"audio/actual/s3-imitation-10bis_jenseigne_beaucoup-3_cut1norm.mp3","button_pressed":"1","test_part":"test","phrase":"10bis","condition":"imitation","subject":"s3","trial_type":"audio-button-response","trial_index":101,"time_elapsed":204886,"internal_node_id":"0.0-1.0-1.48-0.48"},{"rt":6357.365000003483,"stimulus":"audio/actual/s7-blind-10bis_jenseigne_beaucoup.mp3","button_pressed":"1","test_part":"test","phrase":"10bis","condition":"blind","subject":"s7","trial_type":"audio-button-response","trial_index":103,"time_elapsed":211927,"internal_node_id":"0.0-1.0-0.49"},{"rt":2098.055000009481,"stimulus":"audio/actual/s3-lecture-10bis_jenseigne_beaucoup-3_cut1norm.mp3","button_pressed":"1","test_part":"test","phrase":"10bis","condition":"lecture","subject":"s3","trial_type":"audio-button-response","trial_index":105,"time_elapsed":214682,"internal_node_id":"0.0-1.0-0.50"},{"rt":1467.85000001546,"stimulus":"audio/actual/s2-guide-10_jean_saigne_beaucoup.mp3","button_pressed":"0","test_part":"test","phrase":"10","condition":"guide","subject":"s2","trial_type":"audio-button-response","trial_index":107,"time_elapsed":216606,"internal_node_id":"0.0-1.0-0.51"},{"rt":1610.0450000085402,"stimulus":"audio/actual/s5-imitation-10_jean_saigne_beaucoup-10_cut1norm.mp3","button_pressed":"0","test_part":"test","phrase":"10","condition":"imitation","subject":"s5","trial_type":"audio-button-response","trial_index":109,"time_elapsed":218674,"internal_node_id":"0.0-1.0-0.52"},{"rt":3263.6449999990873,"stimulus":"audio/actual/s2-blind-10_jean_saigne_beaucoup.mp3","button_pressed":"0","test_part":"test","phrase":"10","condition":"blind","subject":"s2","trial_type":"audio-button-response","trial_index":111,"time_elapsed":222554,"internal_node_id":"0.0-1.0-0.53"},{"rt":3017.214999999851,"stimulus":"audio/actual/s4-blind-10_jean_saigne_beaucoup.mp3","button_pressed":"0","test_part":"test","phrase":"10","condition":"blind","subject":"s4","trial_type":"audio-button-response","trial_index":113,"time_elapsed":226172,"internal_node_id":"0.0-1.0-0.54"},{"rt":4378.960000001825,"stimulus":"audio/actual/s10-guide-10_jean_saigne_beaucoup.mp3","button_pressed":"0","test_part":"test","phrase":"10","condition":"guide","subject":"s10","trial_type":"audio-button-response","trial_index":115,"time_elapsed":231022,"internal_node_id":"0.0-1.0-0.55"},{"rt":6518.554999987828,"stimulus":"audio/actual/s5-blind-10bis_jenseigne_beaucoup.mp3","button_pressed":"2","test_part":"test","phrase":"10bis","condition":"blind","subject":"s5","trial_type":"audio-button-response","trial_index":117,"time_elapsed":238137,"internal_node_id":"0.0-1.0-0.56"},{"rt":2420.094999979483,"stimulus":"audio/actual/s5-blind-10bis_jenseigne_beaucoup.mp3","button_pressed":"1","test_part":"test","phrase":"10bis","condition":"blind","subject":"s5","trial_type":"audio-button-response","trial_index":118,"time_elapsed":240560,"internal_node_id":"0.0-1.0-1.56-0.56"},{"rt":2755.6150000018533,"stimulus":"audio/actual/s4-guide-10bis_jenseigne_beaucoup.mp3","button_pressed":"1","test_part":"test","phrase":"10bis","condition":"guide","subject":"s4","trial_type":"audio-button-response","trial_index":120,"time_elapsed":244134,"internal_node_id":"0.0-1.0-0.57"},{"rt":2441.2000000011176,"stimulus":"audio/actual/s2-blind-10bis_jenseigne_beaucoup.mp3","button_pressed":"1","test_part":"test","phrase":"10bis","condition":"blind","subject":"s2","trial_type":"audio-button-response","trial_index":122,"time_elapsed":247101,"internal_node_id":"0.0-1.0-0.58"},{"rt":3407.4600000167266,"stimulus":"audio/actual/s3-imitation-10_jean_saigne_beaucoup-2_cut1norm.mp3","button_pressed":"0","test_part":"test","phrase":"10","condition":"imitation","subject":"s3","trial_type":"audio-button-response","trial_index":124,"time_elapsed":250815,"internal_node_id":"0.0-1.0-0.59"},{"rt":2018.305000005057,"stimulus":"audio/actual/s10-imitation-10bis_jenseigne_beaucoup-10_cut1norm.mp3","button_pressed":"1","test_part":"test","phrase":"10bis","condition":"imitation","subject":"s10","trial_type":"audio-button-response","trial_index":126,"time_elapsed":253255,"internal_node_id":"0.0-1.0-0.60"},{"rt":6755.239999998594,"stimulus":"audio/actual/s3-guide-10bis_jenseigne_beaucoup.mp3","button_pressed":"0","test_part":"test","phrase":"10bis","condition":"guide","subject":"s3","trial_type":"audio-button-response","trial_index":128,"time_elapsed":260245,"internal_node_id":"0.0-1.0-0.61"},{"rt":1261.5850000001956,"stimulus":"audio/actual/s4-imitation-10_jean_saigne_beaucoup-1_cut1norm.mp3","button_pressed":"0","test_part":"test","phrase":"10","condition":"imitation","subject":"s4","trial_type":"audio-button-response","trial_index":130,"time_elapsed":261946,"internal_node_id":"0.0-1.0-0.62"},{"rt":5188.909999997122,"stimulus":"audio/actual/s10-lecture-10_jean_saigne_beaucoup-10_cut1norm.mp3","button_pressed":"2","test_part":"test","phrase":"10","condition":"lecture","subject":"s10","trial_type":"audio-button-response","trial_index":132,"time_elapsed":267893,"internal_node_id":"0.0-1.0-0.63"},{"rt":1995.1299999956973,"stimulus":"audio/actual/s10-lecture-10_jean_saigne_beaucoup-10_cut1norm.mp3","button_pressed":"1","test_part":"test","phrase":"10","condition":"lecture","subject":"s10","trial_type":"audio-button-response","trial_index":133,"time_elapsed":269889,"internal_node_id":"0.0-1.0-1.63-0.63"},{"rt":3703.89500001329,"stimulus":"audio/actual/s2-lecture-10bis_jenseigne_beaucoup-6_cut1norm.mp3","button_pressed":"1","test_part":"test","phrase":"10bis","condition":"lecture","subject":"s2","trial_type":"audio-button-response","trial_index":135,"time_elapsed":274450,"internal_node_id":"0.0-1.0-0.64"},{"rt":2389.599999994971,"stimulus":"audio/actual/s7-lecture-10_jean_saigne_beaucoup-8_cut1norm.mp3","button_pressed":"1","test_part":"test","phrase":"10","condition":"lecture","subject":"s7","trial_type":"audio-button-response","trial_index":137,"time_elapsed":277351,"internal_node_id":"0.0-1.0-0.65"},{"rt":5178.749999991851,"stimulus":"audio/actual/s5-guide-10_jean_saigne_beaucoup.mp3","button_pressed":"1","test_part":"test","phrase":"10","condition":"guide","subject":"s5","trial_type":"audio-button-response","trial_index":139,"time_elapsed":283052,"internal_node_id":"0.0-1.0-0.66"},{"rt":2211.0999999858905,"stimulus":"audio/actual/s7-lecture-10bis_jenseigne_beaucoup-9_cut1norm.mp3","button_pressed":"0","test_part":"test","phrase":"10bis","condition":"lecture","subject":"s7","trial_type":"audio-button-response","trial_index":141,"time_elapsed":285980,"internal_node_id":"0.0-1.0-0.67"},{"rt":1977.470000012545,"stimulus":"audio/actual/s6-lecture-10_jean_saigne_beaucoup-1_cut1norm.mp3","button_pressed":"0","test_part":"test","phrase":"10","condition":"lecture","subject":"s6","trial_type":"audio-button-response","trial_index":143,"time_elapsed":288337,"internal_node_id":"0.0-1.0-0.68"},{"rt":19219.53499998199,"stimulus":"audio/actual/s1-blind-10bis_jenseigne_beaucoup.mp3","button_pressed":"0","test_part":"test","phrase":"10bis","condition":"blind","subject":"s1","trial_type":"audio-button-response","trial_index":145,"time_elapsed":308051,"internal_node_id":"0.0-1.0-0.69"},{"rt":1682.039999985136,"stimulus":"audio/actual/s10-lecture-10bis_jenseigne_beaucoup-11_cut1norm.mp3","button_pressed":"1","test_part":"test","phrase":"10bis","condition":"lecture","subject":"s10","trial_type":"audio-button-response","trial_index":147,"time_elapsed":310785,"internal_node_id":"0.0-1.0-0.70"},{"rt":1882.00000001234,"stimulus":"audio/actual/s9-guide-10bis_jenseigne_beaucoup.mp3","button_pressed":"1","test_part":"test","phrase":"10bis","condition":"guide","subject":"s9","trial_type":"audio-button-response","trial_index":149,"time_elapsed":313182,"internal_node_id":"0.0-1.0-0.71"},{"rt":3379.929999995511,"stimulus":"audio/actual/s1-lecture-10_jean_saigne_beaucoup-2_cut1norm.mp3","button_pressed":"0","test_part":"test","phrase":"10","condition":"lecture","subject":"s1","trial_type":"audio-button-response","trial_index":151,"time_elapsed":317026,"internal_node_id":"0.0-1.0-0.72"},{"rt":5197.119999997085,"stimulus":"audio/actual/s5-blind-10_jean_saigne_beaucoup.mp3","button_pressed":"2","test_part":"test","phrase":"10","condition":"blind","subject":"s5","trial_type":"audio-button-response","trial_index":153,"time_elapsed":322611,"internal_node_id":"0.0-1.0-0.73"},{"rt":5692.370000004303,"stimulus":"audio/actual/s5-blind-10_jean_saigne_beaucoup.mp3","button_pressed":"0","test_part":"test","phrase":"10","condition":"blind","subject":"s5","trial_type":"audio-button-response","trial_index":154,"time_elapsed":328305,"internal_node_id":"0.0-1.0-1.73-0.73"},{"rt":5037.440000014612,"stimulus":"audio/actual/s2-imitation-10bis_jenseigne_beaucoup-5_cut1norm.mp3","button_pressed":"1","test_part":"test","phrase":"10bis","condition":"imitation","subject":"s2","trial_type":"audio-button-response","trial_index":156,"time_elapsed":334112,"internal_node_id":"0.0-1.0-0.74"},{"rt":7108.685000013793,"stimulus":"audio/actual/s8-blind-10_jean_saigne_beaucoup.mp3","button_pressed":"0","test_part":"test","phrase":"10","condition":"blind","subject":"s8","trial_type":"audio-button-response","trial_index":158,"time_elapsed":341978,"internal_node_id":"0.0-1.0-0.75"},{"rt":2188.0700000037905,"stimulus":"audio/actual/s7-guide-10_jean_saigne_beaucoup.mp3","button_pressed":"0","test_part":"test","phrase":"10","condition":"guide","subject":"s7","trial_type":"audio-button-response","trial_index":160,"time_elapsed":344653,"internal_node_id":"0.0-1.0-0.76"},{"rt":4061.7550000024494,"stimulus":"audio/actual/s6-blind-10bis_jenseigne_beaucoup.mp3","button_pressed":"0","test_part":"test","phrase":"10bis","condition":"blind","subject":"s6","trial_type":"audio-button-response","trial_index":162,"time_elapsed":349206,"internal_node_id":"0.0-1.0-0.77"},{"rt":1538.3699999947567,"stimulus":"audio/actual/s7-imitation-10_jean_saigne_beaucoup-3_cut1norm.mp3","button_pressed":"0","test_part":"test","phrase":"10","condition":"imitation","subject":"s7","trial_type":"audio-button-response","trial_index":164,"time_elapsed":351031,"internal_node_id":"0.0-1.0-0.78"},{"rt":5808.324999990873,"stimulus":"audio/actual/s1-imitation-10bis_jenseigne_beaucoup-10_cut1norm.mp3","button_pressed":"0","test_part":"test","phrase":"10bis","condition":"imitation","subject":"s1","trial_type":"audio-button-response","trial_index":166,"time_elapsed":357311,"internal_node_id":"0.0-1.0-0.79"}]