[{"rt":4118,"stimulus":"audio/actual/s10-blind-10_jean_saigne_beaucoup.mp3","button_pressed":"1","test_part":"test","phrase":"10","condition":"blind","subject":"s10","trial_type":"audio-button-response","trial_index":1,"time_elapsed":5404,"internal_node_id":"0.0-1.0-0.0"},{"rt":1690,"stimulus":"audio/actual/s5-guide-10_jean_saigne_beaucoup.mp3","button_pressed":"0","test_part":"test","phrase":"10","condition":"guide","subject":"s5","trial_type":"audio-button-response","trial_index":3,"time_elapsed":7634,"internal_node_id":"0.0-1.0-0.1"},{"rt":1545,"stimulus":"audio/actual/s3-imitation-10_jean_saigne_beaucoup-2_cut1norm.mp3","button_pressed":"0","test_part":"test","phrase":"10","condition":"imitation","subject":"s3","trial_type":"audio-button-response","trial_index":5,"time_elapsed":10190,"internal_node_id":"0.0-1.0-0.2"},{"rt":1596,"stimulus":"audio/actual/s2-imitation-10_jean_saigne_beaucoup-4_cut1norm.mp3","button_pressed":"0","test_part":"test","phrase":"10","condition":"imitation","subject":"s2","trial_type":"audio-button-response","trial_index":7,"time_elapsed":12208,"internal_node_id":"0.0-1.0-0.3"},{"rt":1324,"stimulus":"audio/actual/s5-lecture-10bis_jenseigne_beaucoup-4_cut1norm.mp3","button_pressed":"0","test_part":"test","phrase":"10bis","condition":"lecture","subject":"s5","trial_type":"audio-button-response","trial_index":9,"time_elapsed":13983,"internal_node_id":"0.0-1.0-0.4"},{"rt":3594,"stimulus":"audio/actual/s8-imitation-10_jean_saigne_beaucoup-10_cut1norm.mp3","button_pressed":"0","test_part":"test","phrase":"10","condition":"imitation","subject":"s8","trial_type":"audio-button-response","trial_index":11,"time_elapsed":17881,"internal_node_id":"0.0-1.0-0.5"},{"rt":1757,"stimulus":"audio/actual/s3-lecture-10bis_jenseigne_beaucoup-3_cut1norm.mp3","button_pressed":"1","test_part":"test","phrase":"10bis","condition":"lecture","subject":"s3","trial_type":"audio-button-response","trial_index":13,"time_elapsed":20119,"internal_node_id":"0.0-1.0-0.6"},{"rt":1822,"stimulus":"audio/actual/s4-guide-10bis_jenseigne_beaucoup.mp3","button_pressed":"0","test_part":"test","phrase":"10bis","condition":"guide","subject":"s4","trial_type":"audio-button-response","trial_index":15,"time_elapsed":22692,"internal_node_id":"0.0-1.0-0.7"},{"rt":1295,"stimulus":"audio/actual/s7-guide-10_jean_saigne_beaucoup.mp3","button_pressed":"0","test_part":"test","phrase":"10","condition":"guide","subject":"s7","trial_type":"audio-button-response","trial_index":17,"time_elapsed":24240,"internal_node_id":"0.0-1.0-0.8"},{"rt":1315,"stimulus":"audio/actual/s10-lecture-10bis_jenseigne_beaucoup-11_cut1norm.mp3","button_pressed":"1","test_part":"test","phrase":"10bis","condition":"lecture","subject":"s10","trial_type":"audio-button-response","trial_index":19,"time_elapsed":26058,"internal_node_id":"0.0-1.0-0.9"},{"rt":1970,"stimulus":"audio/actual/s2-lecture-10bis_jenseigne_beaucoup-6_cut1norm.mp3","button_pressed":"0","test_part":"test","phrase":"10bis","condition":"lecture","subject":"s2","trial_type":"audio-button-response","trial_index":21,"time_elapsed":28681,"internal_node_id":"0.0-1.0-0.10"},{"rt":1876,"stimulus":"audio/actual/s5-imitation-10bis_jenseigne_beaucoup-11_cut1norm.mp3","button_pressed":"1","test_part":"test","phrase":"10bis","condition":"imitation","subject":"s5","trial_type":"audio-button-response","trial_index":23,"time_elapsed":30763,"internal_node_id":"0.0-1.0-0.11"},{"rt":1484,"stimulus":"audio/actual/s1-lecture-10bis_jenseigne_beaucoup-3_cut1norm.mp3","button_pressed":"0","test_part":"test","phrase":"10bis","condition":"lecture","subject":"s1","trial_type":"audio-button-response","trial_index":25,"time_elapsed":32865,"internal_node_id":"0.0-1.0-0.12"},{"rt":1404,"stimulus":"audio/actual/s5-imitation-10_jean_saigne_beaucoup-10_cut1norm.mp3","button_pressed":"0","test_part":"test","phrase":"10","condition":"imitation","subject":"s5","trial_type":"audio-button-response","trial_index":27,"time_elapsed":34636,"internal_node_id":"0.0-1.0-0.13"},{"rt":1461,"stimulus":"audio/actual/s6-guide-10_jean_saigne_beaucoup.mp3","button_pressed":"1","test_part":"test","phrase":"10","condition":"guide","subject":"s6","trial_type":"audio-button-response","trial_index":29,"time_elapsed":36377,"internal_node_id":"0.0-1.0-0.14"},{"rt":2811,"stimulus":"audio/actual/s2-guide-10bis_jenseigne_beaucoup.mp3","button_pressed":"1","test_part":"test","phrase":"10bis","condition":"guide","subject":"s2","trial_type":"audio-button-response","trial_index":31,"time_elapsed":39460,"internal_node_id":"0.0-1.0-0.15"},{"rt":1681,"stimulus":"audio/actual/s6-imitation-10_jean_saigne_beaucoup-5_cut1norm.mp3","button_pressed":"0","test_part":"test","phrase":"10","condition":"imitation","subject":"s6","trial_type":"audio-button-response","trial_index":33,"time_elapsed":41347,"internal_node_id":"0.0-1.0-0.16"},{"rt":3042.0000000000073,"stimulus":"audio/actual/s5-blind-10bis_jenseigne_beaucoup.mp3","button_pressed":"1","test_part":"test","phrase":"10bis","condition":"blind","subject":"s5","trial_type":"audio-button-response","trial_index":35,"time_elapsed":44613,"internal_node_id":"0.0-1.0-0.17"},{"rt":1442,"stimulus":"audio/actual/s9-imitation-10_jean_saigne_beaucoup-4_cut1norm.mp3","button_pressed":"0","test_part":"test","phrase":"10","condition":"imitation","subject":"s9","trial_type":"audio-button-response","trial_index":37,"time_elapsed":46357,"internal_node_id":"0.0-1.0-0.18"},{"rt":1156,"stimulus":"audio/actual/s8-blind-10bis_jenseigne_beaucoup.mp3","button_pressed":"1","test_part":"test","phrase":"10bis","condition":"blind","subject":"s8","trial_type":"audio-button-response","trial_index":39,"time_elapsed":47758,"internal_node_id":"0.0-1.0-0.19"},{"rt":1214,"stimulus":"audio/actual/s7-imitation-10bis_jenseigne_beaucoup-2_cut1norm.mp3","button_pressed":"1","test_part":"test","phrase":"10bis","condition":"imitation","subject":"s7","trial_type":"audio-button-response","trial_index":41,"time_elapsed":49164,"internal_node_id":"0.0-1.0-0.20"},{"rt":947.0000000000073,"stimulus":"audio/actual/s9-guide-10_jean_saigne_beaucoup.mp3","button_pressed":"0","test_part":"test","phrase":"10","condition":"guide","subject":"s9","trial_type":"audio-button-response","trial_index":43,"time_elapsed":50284,"internal_node_id":"0.0-1.0-0.21"},{"rt":1150,"stimulus":"audio/actual/s4-imitation-10bis_jenseigne_beaucoup-0_cut1norm.mp3","button_pressed":"1","test_part":"test","phrase":"10bis","condition":"imitation","subject":"s4","trial_type":"audio-button-response","trial_index":45,"time_elapsed":51750,"internal_node_id":"0.0-1.0-0.22"},{"rt":927,"stimulus":"audio/actual/s2-blind-10_jean_saigne_beaucoup.mp3","button_pressed":"0","test_part":"test","phrase":"10","condition":"blind","subject":"s2","trial_type":"audio-button-response","trial_index":47,"time_elapsed":52871,"internal_node_id":"0.0-1.0-0.23"},{"rt":2113,"stimulus":"audio/actual/s4-blind-10bis_jenseigne_beaucoup.mp3","button_pressed":"0","test_part":"test","phrase":"10bis","condition":"blind","subject":"s4","trial_type":"audio-button-response","trial_index":49,"time_elapsed":55506,"internal_node_id":"0.0-1.0-0.24"},{"rt":1059.0000000000073,"stimulus":"audio/actual/s1-imitation-10_jean_saigne_beaucoup-11_cut1norm.mp3","button_pressed":"0","test_part":"test","phrase":"10","condition":"imitation","subject":"s1","trial_type":"audio-button-response","trial_index":51,"time_elapsed":56928,"internal_node_id":"0.0-1.0-0.25"},{"rt":1697,"stimulus":"audio/actual/s2-imitation-10bis_jenseigne_beaucoup-5_cut1norm.mp3","button_pressed":"1","test_part":"test","phrase":"10bis","condition":"imitation","subject":"s2","trial_type":"audio-button-response","trial_index":53,"time_elapsed":58847,"internal_node_id":"0.0-1.0-0.26"},{"rt":1026.9999999999927,"stimulus":"audio/actual/s6-lecture-10_jean_saigne_beaucoup-1_cut1norm.mp3","button_pressed":"0","test_part":"test","phrase":"10","condition":"lecture","subject":"s6","trial_type":"audio-button-response","trial_index":55,"time_elapsed":60364,"internal_node_id":"0.0-1.0-0.27"},{"rt":1898,"stimulus":"audio/actual/s1-lecture-10_jean_saigne_beaucoup-2_cut1norm.mp3","button_pressed":"0","test_part":"test","phrase":"10","condition":"lecture","subject":"s1","trial_type":"audio-button-response","trial_index":57,"time_elapsed":62442,"internal_node_id":"0.0-1.0-0.28"},{"rt":1508,"stimulus":"audio/actual/s7-lecture-10bis_jenseigne_beaucoup-9_cut1norm.mp3","button_pressed":"0","test_part":"test","phrase":"10bis","condition":"lecture","subject":"s7","trial_type":"audio-button-response","trial_index":59,"time_elapsed":64155,"internal_node_id":"0.0-1.0-0.29"},{"rt":1562,"stimulus":"audio/actual/s8-lecture-10bis_jenseigne_beaucoup-11_cut1norm.mp3","button_pressed":"1","test_part":"test","phrase":"10bis","condition":"lecture","subject":"s8","trial_type":"audio-button-response","trial_index":61,"time_elapsed":65917,"internal_node_id":"0.0-1.0-0.30"},{"rt":1191,"stimulus":"audio/actual/s4-imitation-10_jean_saigne_beaucoup-1_cut1norm.mp3","button_pressed":"0","test_part":"test","phrase":"10","condition":"imitation","subject":"s4","trial_type":"audio-button-response","trial_index":63,"time_elapsed":67262,"internal_node_id":"0.0-1.0-0.31"},{"rt":2987,"stimulus":"audio/actual/s10-guide-10bis_jenseigne_beaucoup.mp3","button_pressed":"1","test_part":"test","phrase":"10bis","condition":"guide","subject":"s10","trial_type":"audio-button-response","trial_index":65,"time_elapsed":70438,"internal_node_id":"0.0-1.0-0.32"},{"rt":2212,"stimulus":"audio/actual/s8-guide-10bis_jenseigne_beaucoup.mp3","button_pressed":"1","test_part":"test","phrase":"10bis","condition":"guide","subject":"s8","trial_type":"audio-button-response","trial_index":67,"time_elapsed":72801,"internal_node_id":"0.0-1.0-0.33"},{"rt":953.9999999999854,"stimulus":"audio/actual/s7-imitation-10_jean_saigne_beaucoup-3_cut1norm.mp3","button_pressed":"0","test_part":"test","phrase":"10","condition":"imitation","subject":"s7","trial_type":"audio-button-response","trial_index":69,"time_elapsed":73922,"internal_node_id":"0.0-1.0-0.34"},{"rt":1651.9999999999854,"stimulus":"audio/actual/s2-lecture-10_jean_saigne_beaucoup-7_cut1norm.mp3","button_pressed":"0","test_part":"test","phrase":"10","condition":"lecture","subject":"s2","trial_type":"audio-button-response","trial_index":71,"time_elapsed":75736,"internal_node_id":"0.0-1.0-0.35"},{"rt":1351,"stimulus":"audio/actual/s7-blind-10_jean_saigne_beaucoup.mp3","button_pressed":"0","test_part":"test","phrase":"10","condition":"blind","subject":"s7","trial_type":"audio-button-response","trial_index":73,"time_elapsed":77450,"internal_node_id":"0.0-1.0-0.36"},{"rt":1640,"stimulus":"audio/actual/s6-blind-10_jean_saigne_beaucoup.mp3","button_pressed":"1","test_part":"test","phrase":"10","condition":"blind","subject":"s6","trial_type":"audio-button-response","trial_index":75,"time_elapsed":79396,"internal_node_id":"0.0-1.0-0.37"},{"rt":1915.0000000000146,"stimulus":"audio/actual/s1-blind-10bis_jenseigne_beaucoup.mp3","button_pressed":"1","test_part":"test","phrase":"10bis","condition":"blind","subject":"s1","trial_type":"audio-button-response","trial_index":77,"time_elapsed":81983,"internal_node_id":"0.0-1.0-0.38"},{"rt":1087,"stimulus":"audio/actual/s9-lecture-10_jean_saigne_beaucoup-3_cut1norm.mp3","button_pressed":"0","test_part":"test","phrase":"10","condition":"lecture","subject":"s9","trial_type":"audio-button-response","trial_index":79,"time_elapsed":83252,"internal_node_id":"0.0-1.0-0.39"},{"rt":1245,"stimulus":"audio/actual/s10-blind-10bis_jenseigne_beaucoup.mp3","button_pressed":"1","test_part":"test","phrase":"10bis","condition":"blind","subject":"s10","trial_type":"audio-button-response","trial_index":81,"time_elapsed":84734,"internal_node_id":"0.0-1.0-0.40"},{"rt":4156,"stimulus":"audio/actual/s5-guide-10bis_jenseigne_beaucoup.mp3","button_pressed":"1","test_part":"test","phrase":"10bis","condition":"guide","subject":"s5","trial_type":"audio-button-response","trial_index":83,"time_elapsed":89170,"internal_node_id":"0.0-1.0-0.41"},{"rt":1578.0000000000146,"stimulus":"audio/actual/s9-guide-10bis_jenseigne_beaucoup.mp3","button_pressed":"1","test_part":"test","phrase":"10bis","condition":"guide","subject":"s9","trial_type":"audio-button-response","trial_index":85,"time_elapsed":90977,"internal_node_id":"0.0-1.0-0.42"},{"rt":1197,"stimulus":"audio/actual/s7-guide-10bis_jenseigne_beaucoup.mp3","button_pressed":"1","test_part":"test","phrase":"10bis","condition":"guide","subject":"s7","trial_type":"audio-button-response","trial_index":87,"time_elapsed":92562,"internal_node_id":"0.0-1.0-0.43"},{"rt":1339,"stimulus":"audio/actual/s6-imitation-10bis_jenseigne_beaucoup-4_cut1norm.mp3","button_pressed":"1","test_part":"test","phrase":"10bis","condition":"imitation","subject":"s6","trial_type":"audio-button-response","trial_index":89,"time_elapsed":94200,"internal_node_id":"0.0-1.0-0.44"},{"rt":1252,"stimulus":"audio/actual/s3-blind-10bis_jenseigne_beaucoup.mp3","button_pressed":"1","test_part":"test","phrase":"10bis","condition":"blind","subject":"s3","trial_type":"audio-button-response","trial_index":91,"time_elapsed":95665,"internal_node_id":"0.0-1.0-0.45"},{"rt":1214,"stimulus":"audio/actual/s4-lecture-10_jean_saigne_beaucoup-1_cut1norm.mp3","button_pressed":"0","test_part":"test","phrase":"10","condition":"lecture","subject":"s4","trial_type":"audio-button-response","trial_index":93,"time_elapsed":97114,"internal_node_id":"0.0-1.0-0.46"},{"rt":1879,"stimulus":"audio/actual/s5-blind-10_jean_saigne_beaucoup.mp3","button_pressed":"0","test_part":"test","phrase":"10","condition":"blind","subject":"s5","trial_type":"audio-button-response","trial_index":95,"time_elapsed":99274,"internal_node_id":"0.0-1.0-0.47"},{"rt":1334.0000000000146,"stimulus":"audio/actual/s10-imitation-10bis_jenseigne_beaucoup-10_cut1norm.mp3","button_pressed":"1","test_part":"test","phrase":"10bis","condition":"imitation","subject":"s10","trial_type":"audio-button-response","trial_index":97,"time_elapsed":100861,"internal_node_id":"0.0-1.0-0.48"},{"rt":1296,"stimulus":"audio/actual/s5-lecture-10_jean_saigne_beaucoup-5_cut1norm.mp3","button_pressed":"0","test_part":"test","phrase":"10","condition":"lecture","subject":"s5","trial_type":"audio-button-response","trial_index":99,"time_elapsed":102689,"internal_node_id":"0.0-1.0-0.49"},{"rt":1750,"stimulus":"audio/actual/s2-guide-10_jean_saigne_beaucoup.mp3","button_pressed":"0","test_part":"test","phrase":"10","condition":"guide","subject":"s2","trial_type":"audio-button-response","trial_index":101,"time_elapsed":104580,"internal_node_id":"0.0-1.0-0.50"},{"rt":980,"stimulus":"audio/actual/s7-lecture-10_jean_saigne_beaucoup-8_cut1norm.mp3","button_pressed":"1","test_part":"test","phrase":"10","condition":"lecture","subject":"s7","trial_type":"audio-button-response","trial_index":103,"time_elapsed":105765,"internal_node_id":"0.0-1.0-0.51"},{"rt":2426,"stimulus":"audio/actual/s3-guide-10_jean_saigne_beaucoup.mp3","button_pressed":"0","test_part":"test","phrase":"10","condition":"guide","subject":"s3","trial_type":"audio-button-response","trial_index":105,"time_elapsed":108387,"internal_node_id":"0.0-1.0-0.52"},{"rt":1157,"stimulus":"audio/actual/s2-blind-10bis_jenseigne_beaucoup.mp3","button_pressed":"1","test_part":"test","phrase":"10bis","condition":"blind","subject":"s2","trial_type":"audio-button-response","trial_index":107,"time_elapsed":109701,"internal_node_id":"0.0-1.0-0.53"},{"rt":1006,"stimulus":"audio/actual/s8-imitation-10bis_jenseigne_beaucoup-11_cut1norm.mp3","button_pressed":"1","test_part":"test","phrase":"10bis","condition":"imitation","subject":"s8","trial_type":"audio-button-response","trial_index":109,"time_elapsed":110892,"internal_node_id":"0.0-1.0-0.54"},{"rt":1812,"stimulus":"audio/actual/s1-imitation-10bis_jenseigne_beaucoup-10_cut1norm.mp3","button_pressed":"1","test_part":"test","phrase":"10bis","condition":"imitation","subject":"s1","trial_type":"audio-button-response","trial_index":111,"time_elapsed":112876,"internal_node_id":"0.0-1.0-0.55"},{"rt":1966.0000000000146,"stimulus":"audio/actual/s9-blind-10_jean_saigne_beaucoup.mp3","button_pressed":"1","test_part":"test","phrase":"10","condition":"blind","subject":"s9","trial_type":"audio-button-response","trial_index":113,"time_elapsed":114992,"internal_node_id":"0.0-1.0-0.56"},{"rt":1278,"stimulus":"audio/actual/s3-imitation-10bis_jenseigne_beaucoup-3_cut1norm.mp3","button_pressed":"1","test_part":"test","phrase":"10bis","condition":"imitation","subject":"s3","trial_type":"audio-button-response","trial_index":115,"time_elapsed":116525,"internal_node_id":"0.0-1.0-0.57"},{"rt":3845,"stimulus":"audio/actual/s8-guide-10_jean_saigne_beaucoup.mp3","button_pressed":"0","test_part":"test","phrase":"10","condition":"guide","subject":"s8","trial_type":"audio-button-response","trial_index":117,"time_elapsed":120549,"internal_node_id":"0.0-1.0-0.58"},{"rt":1670.0000000000146,"stimulus":"audio/actual/s10-imitation-10_jean_saigne_beaucoup-11_cut1norm.mp3","button_pressed":"0","test_part":"test","phrase":"10","condition":"imitation","subject":"s10","trial_type":"audio-button-response","trial_index":119,"time_elapsed":122825,"internal_node_id":"0.0-1.0-0.59"},{"rt":1612,"stimulus":"audio/actual/s1-guide-10_jean_saigne_beaucoup.mp3","button_pressed":"0","test_part":"test","phrase":"10","condition":"guide","subject":"s1","trial_type":"audio-button-response","trial_index":121,"time_elapsed":125718,"internal_node_id":"0.0-1.0-0.60"},{"rt":1608.0000000000146,"stimulus":"audio/actual/s8-blind-10_jean_saigne_beaucoup.mp3","button_pressed":"1","test_part":"test","phrase":"10","condition":"blind","subject":"s8","trial_type":"audio-button-response","trial_index":123,"time_elapsed":127569,"internal_node_id":"0.0-1.0-0.61"},{"rt":2140,"stimulus":"audio/actual/s3-blind-10_jean_saigne_beaucoup.mp3","button_pressed":"1","test_part":"test","phrase":"10","condition":"blind","subject":"s3","trial_type":"audio-button-response","trial_index":125,"time_elapsed":130023,"internal_node_id":"0.0-1.0-0.62"},{"rt":1079,"stimulus":"audio/actual/s9-imitation-10bis_jenseigne_beaucoup-5_cut1norm.mp3","button_pressed":"1","test_part":"test","phrase":"10bis","condition":"imitation","subject":"s9","trial_type":"audio-button-response","trial_index":127,"time_elapsed":131240,"internal_node_id":"0.0-1.0-0.63"},{"rt":2511,"stimulus":"audio/actual/s4-guide-10_jean_saigne_beaucoup.mp3","button_pressed":"0","test_part":"test","phrase":"10","condition":"guide","subject":"s4","trial_type":"audio-button-response","trial_index":129,"time_elapsed":133862,"internal_node_id":"0.0-1.0-0.64"},{"rt":1854,"stimulus":"audio/actual/s10-lecture-10_jean_saigne_beaucoup-10_cut1norm.mp3","button_pressed":"1","test_part":"test","phrase":"10","condition":"lecture","subject":"s10","trial_type":"audio-button-response","trial_index":131,"time_elapsed":135844,"internal_node_id":"0.0-1.0-0.65"},{"rt":1101,"stimulus":"audio/actual/s9-blind-10bis_jenseigne_beaucoup.mp3","button_pressed":"1","test_part":"test","phrase":"10bis","condition":"blind","subject":"s9","trial_type":"audio-button-response","trial_index":133,"time_elapsed":137078,"internal_node_id":"0.0-1.0-0.66"},{"rt":1450,"stimulus":"audio/actual/s3-guide-10bis_jenseigne_beaucoup.mp3","button_pressed":"1","test_part":"test","phrase":"10bis","condition":"guide","subject":"s3","trial_type":"audio-button-response","trial_index":135,"time_elapsed":138735,"internal_node_id":"0.0-1.0-0.67"},{"rt":1399.000000000029,"stimulus":"audio/actual/s10-guide-10_jean_saigne_beaucoup.mp3","button_pressed":"0","test_part":"test","phrase":"10","condition":"guide","subject":"s10","trial_type":"audio-button-response","trial_index":137,"time_elapsed":140389,"internal_node_id":"0.0-1.0-0.68"},{"rt":1929,"stimulus":"audio/actual/s1-blind-10_jean_saigne_beaucoup.mp3","button_pressed":"0","test_part":"test","phrase":"10","condition":"blind","subject":"s1","trial_type":"audio-button-response","trial_index":139,"time_elapsed":142447,"internal_node_id":"0.0-1.0-0.69"},{"rt":1353,"stimulus":"audio/actual/s8-lecture-10_jean_saigne_beaucoup-10_cut1norm.mp3","button_pressed":"0","test_part":"test","phrase":"10","condition":"lecture","subject":"s8","trial_type":"audio-button-response","trial_index":141,"time_elapsed":144097,"internal_node_id":"0.0-1.0-0.70"},{"rt":1626,"stimulus":"audio/actual/s4-lecture-10bis_jenseigne_beaucoup-0_cut1norm.mp3","button_pressed":"1","test_part":"test","phrase":"10bis","condition":"lecture","subject":"s4","trial_type":"audio-button-response","trial_index":143,"time_elapsed":146023,"internal_node_id":"0.0-1.0-0.71"},{"rt":1598.000000000029,"stimulus":"audio/actual/s9-lecture-10bis_jenseigne_beaucoup-2_cut1norm.mp3","button_pressed":"1","test_part":"test","phrase":"10bis","condition":"lecture","subject":"s9","trial_type":"audio-button-response","trial_index":145,"time_elapsed":148306,"internal_node_id":"0.0-1.0-0.72"},{"rt":2044,"stimulus":"audio/actual/s3-lecture-10_jean_saigne_beaucoup-2_cut1norm.mp3","button_pressed":"0","test_part":"test","phrase":"10","condition":"lecture","subject":"s3","trial_type":"audio-button-response","trial_index":147,"time_elapsed":150544,"internal_node_id":"0.0-1.0-0.73"},{"rt":2618,"stimulus":"audio/actual/s4-blind-10_jean_saigne_beaucoup.mp3","button_pressed":"0","test_part":"test","phrase":"10","condition":"blind","subject":"s4","trial_type":"audio-button-response","trial_index":149,"time_elapsed":153341,"internal_node_id":"0.0-1.0-0.74"},{"rt":1545,"stimulus":"audio/actual/s6-blind-10bis_jenseigne_beaucoup.mp3","button_pressed":"0","test_part":"test","phrase":"10bis","condition":"blind","subject":"s6","trial_type":"audio-button-response","trial_index":151,"time_elapsed":155294,"internal_node_id":"0.0-1.0-0.75"},{"rt":1552,"stimulus":"audio/actual/s7-blind-10bis_jenseigne_beaucoup.mp3","button_pressed":"0","test_part":"test","phrase":"10bis","condition":"blind","subject":"s7","trial_type":"audio-button-response","trial_index":153,"time_elapsed":156987,"internal_node_id":"0.0-1.0-0.76"},{"rt":1322,"stimulus":"audio/actual/s6-guide-10bis_jenseigne_beaucoup.mp3","button_pressed":"1","test_part":"test","phrase":"10bis","condition":"guide","subject":"s6","trial_type":"audio-button-response","trial_index":155,"time_elapsed":158461,"internal_node_id":"0.0-1.0-0.77"},{"rt":1209.000000000029,"stimulus":"audio/actual/s1-guide-10bis_jenseigne_beaucoup.mp3","button_pressed":"0","test_part":"test","phrase":"10bis","condition":"guide","subject":"s1","trial_type":"audio-button-response","trial_index":157,"time_elapsed":159894,"internal_node_id":"0.0-1.0-0.78"},{"rt":2376,"stimulus":"audio/actual/s6-lecture-10bis_jenseigne_beaucoup-0_cut1norm.mp3","button_pressed":"0","test_part":"test","phrase":"10bis","condition":"lecture","subject":"s6","trial_type":"audio-button-response","trial_index":159,"time_elapsed":162973,"internal_node_id":"0.0-1.0-0.79"}]