[{"rt":4216.889999981504,"stimulus":"audio/actual/s1-imitation-10_jean_saigne_beaucoup-11_cut1norm.mp3","button_pressed":"0","test_part":"test","phrase":"10","condition":"imitation","subject":"s1","trial_type":"audio-button-response","trial_index":1,"time_elapsed":6878,"internal_node_id":"0.0-1.0-0.0"},{"rt":1782.100000011269,"stimulus":"audio/actual/s5-imitation-10bis_jenseigne_beaucoup-11_cut1norm.mp3","button_pressed":"1","test_part":"test","phrase":"10bis","condition":"imitation","subject":"s5","trial_type":"audio-button-response","trial_index":3,"time_elapsed":9518,"internal_node_id":"0.0-1.0-0.1"},{"rt":6785.095000028377,"stimulus":"audio/actual/s6-lecture-10bis_jenseigne_beaucoup-0_cut1norm.mp3","button_pressed":"2","test_part":"test","phrase":"10bis","condition":"lecture","subject":"s6","trial_type":"audio-button-response","trial_index":5,"time_elapsed":17117,"internal_node_id":"0.0-1.0-0.2"},{"rt":4171.200000011595,"stimulus":"audio/actual/s6-lecture-10bis_jenseigne_beaucoup-0_cut1norm.mp3","button_pressed":"1","test_part":"test","phrase":"10bis","condition":"lecture","subject":"s6","trial_type":"audio-button-response","trial_index":6,"time_elapsed":21290,"internal_node_id":"0.0-1.0-1.2-0.2"},{"rt":4706.014999974286,"stimulus":"audio/actual/s7-guide-10bis_jenseigne_beaucoup.mp3","button_pressed":"0","test_part":"test","phrase":"10bis","condition":"guide","subject":"s7","trial_type":"audio-button-response","trial_index":8,"time_elapsed":28108,"internal_node_id":"0.0-1.0-0.3"},{"rt":1562.3450000130106,"stimulus":"audio/actual/s8-lecture-10bis_jenseigne_beaucoup-11_cut1norm.mp3","button_pressed":"1","test_part":"test","phrase":"10bis","condition":"lecture","subject":"s8","trial_type":"audio-button-response","trial_index":10,"time_elapsed":30090,"internal_node_id":"0.0-1.0-0.4"},{"rt":3866.3899999810383,"stimulus":"audio/actual/s10-imitation-10bis_jenseigne_beaucoup-10_cut1norm.mp3","button_pressed":"0","test_part":"test","phrase":"10bis","condition":"imitation","subject":"s10","trial_type":"audio-button-response","trial_index":12,"time_elapsed":34450,"internal_node_id":"0.0-1.0-0.5"},{"rt":2124.515000003157,"stimulus":"audio/actual/s5-blind-10bis_jenseigne_beaucoup.mp3","button_pressed":"1","test_part":"test","phrase":"10bis","condition":"blind","subject":"s5","trial_type":"audio-button-response","trial_index":14,"time_elapsed":37070,"internal_node_id":"0.0-1.0-0.6"},{"rt":2217.525000014575,"stimulus":"audio/actual/s8-imitation-10_jean_saigne_beaucoup-10_cut1norm.mp3","button_pressed":"0","test_part":"test","phrase":"10","condition":"imitation","subject":"s8","trial_type":"audio-button-response","trial_index":16,"time_elapsed":39660,"internal_node_id":"0.0-1.0-0.7"},{"rt":2455.0750000053085,"stimulus":"audio/actual/s3-guide-10bis_jenseigne_beaucoup.mp3","button_pressed":"1","test_part":"test","phrase":"10bis","condition":"guide","subject":"s3","trial_type":"audio-button-response","trial_index":18,"time_elapsed":42691,"internal_node_id":"0.0-1.0-0.8"},{"rt":2852.2000000230037,"stimulus":"audio/actual/s9-blind-10bis_jenseigne_beaucoup.mp3","button_pressed":"0","test_part":"test","phrase":"10bis","condition":"blind","subject":"s9","trial_type":"audio-button-response","trial_index":20,"time_elapsed":46055,"internal_node_id":"0.0-1.0-0.9"},{"rt":2122.8100000007544,"stimulus":"audio/actual/s3-imitation-10_jean_saigne_beaucoup-2_cut1norm.mp3","button_pressed":"0","test_part":"test","phrase":"10","condition":"imitation","subject":"s3","trial_type":"audio-button-response","trial_index":22,"time_elapsed":48770,"internal_node_id":"0.0-1.0-0.10"},{"rt":2037.1199999935925,"stimulus":"audio/actual/s1-blind-10_jean_saigne_beaucoup.mp3","button_pressed":"1","test_part":"test","phrase":"10","condition":"blind","subject":"s1","trial_type":"audio-button-response","trial_index":24,"time_elapsed":51350,"internal_node_id":"0.0-1.0-0.11"},{"rt":1471.9899999909103,"stimulus":"audio/actual/s5-guide-10bis_jenseigne_beaucoup.mp3","button_pressed":"1","test_part":"test","phrase":"10bis","condition":"guide","subject":"s5","trial_type":"audio-button-response","trial_index":26,"time_elapsed":53267,"internal_node_id":"0.0-1.0-0.12"},{"rt":1716.0549999971408,"stimulus":"audio/actual/s2-imitation-10_jean_saigne_beaucoup-4_cut1norm.mp3","button_pressed":"0","test_part":"test","phrase":"10","condition":"imitation","subject":"s2","trial_type":"audio-button-response","trial_index":28,"time_elapsed":55420,"internal_node_id":"0.0-1.0-0.13"},{"rt":2058.104999974603,"stimulus":"audio/actual/s8-lecture-10_jean_saigne_beaucoup-10_cut1norm.mp3","button_pressed":"0","test_part":"test","phrase":"10","condition":"lecture","subject":"s8","trial_type":"audio-button-response","trial_index":30,"time_elapsed":58010,"internal_node_id":"0.0-1.0-0.14"},{"rt":2233.4249999839813,"stimulus":"audio/actual/s4-blind-10bis_jenseigne_beaucoup.mp3","button_pressed":"1","test_part":"test","phrase":"10bis","condition":"blind","subject":"s4","trial_type":"audio-button-response","trial_index":32,"time_elapsed":60500,"internal_node_id":"0.0-1.0-0.15"},{"rt":3410.3549999999814,"stimulus":"audio/actual/s10-blind-10bis_jenseigne_beaucoup.mp3","button_pressed":"1","test_part":"test","phrase":"10bis","condition":"blind","subject":"s10","trial_type":"audio-button-response","trial_index":34,"time_elapsed":64410,"internal_node_id":"0.0-1.0-0.16"},{"rt":3501.0099999781232,"stimulus":"audio/actual/s4-blind-10_jean_saigne_beaucoup.mp3","button_pressed":"1","test_part":"test","phrase":"10","condition":"blind","subject":"s4","trial_type":"audio-button-response","trial_index":36,"time_elapsed":68340,"internal_node_id":"0.0-1.0-0.17"},{"rt":1454.7699999820907,"stimulus":"audio/actual/s8-blind-10_jean_saigne_beaucoup.mp3","button_pressed":"0","test_part":"test","phrase":"10","condition":"blind","subject":"s8","trial_type":"audio-button-response","trial_index":38,"time_elapsed":70180,"internal_node_id":"0.0-1.0-0.18"},{"rt":2200.184999994235,"stimulus":"audio/actual/s2-blind-10_jean_saigne_beaucoup.mp3","button_pressed":"0","test_part":"test","phrase":"10","condition":"blind","subject":"s2","trial_type":"audio-button-response","trial_index":40,"time_elapsed":72840,"internal_node_id":"0.0-1.0-0.19"},{"rt":1529.5699999842327,"stimulus":"audio/actual/s5-lecture-10_jean_saigne_beaucoup-5_cut1norm.mp3","button_pressed":"1","test_part":"test","phrase":"10","condition":"lecture","subject":"s5","trial_type":"audio-button-response","trial_index":42,"time_elapsed":74860,"internal_node_id":"0.0-1.0-0.20"},{"rt":1839.6150000044145,"stimulus":"audio/actual/s9-guide-10_jean_saigne_beaucoup.mp3","button_pressed":"1","test_part":"test","phrase":"10","condition":"guide","subject":"s9","trial_type":"audio-button-response","trial_index":44,"time_elapsed":77110,"internal_node_id":"0.0-1.0-0.21"},{"rt":2379.9199999775738,"stimulus":"audio/actual/s6-imitation-10_jean_saigne_beaucoup-5_cut1norm.mp3","button_pressed":"1","test_part":"test","phrase":"10","condition":"imitation","subject":"s6","trial_type":"audio-button-response","trial_index":46,"time_elapsed":79990,"internal_node_id":"0.0-1.0-0.22"},{"rt":1882.1099999768194,"stimulus":"audio/actual/s1-lecture-10_jean_saigne_beaucoup-2_cut1norm.mp3","button_pressed":"0","test_part":"test","phrase":"10","condition":"lecture","subject":"s1","trial_type":"audio-button-response","trial_index":48,"time_elapsed":82179,"internal_node_id":"0.0-1.0-0.23"},{"rt":2603.189999994356,"stimulus":"audio/actual/s6-blind-10_jean_saigne_beaucoup.mp3","button_pressed":"1","test_part":"test","phrase":"10","condition":"blind","subject":"s6","trial_type":"audio-button-response","trial_index":50,"time_elapsed":85187,"internal_node_id":"0.0-1.0-0.24"},{"rt":2016.475000011269,"stimulus":"audio/actual/s1-blind-10bis_jenseigne_beaucoup.mp3","button_pressed":"0","test_part":"test","phrase":"10bis","condition":"blind","subject":"s1","trial_type":"audio-button-response","trial_index":52,"time_elapsed":87459,"internal_node_id":"0.0-1.0-0.25"},{"rt":2200.844999984838,"stimulus":"audio/actual/s8-guide-10_jean_saigne_beaucoup.mp3","button_pressed":"0","test_part":"test","phrase":"10","condition":"guide","subject":"s8","trial_type":"audio-button-response","trial_index":54,"time_elapsed":90036,"internal_node_id":"0.0-1.0-0.26"},{"rt":1751.8350000027567,"stimulus":"audio/actual/s2-blind-10bis_jenseigne_beaucoup.mp3","button_pressed":"1","test_part":"test","phrase":"10bis","condition":"blind","subject":"s2","trial_type":"audio-button-response","trial_index":56,"time_elapsed":92149,"internal_node_id":"0.0-1.0-0.27"},{"rt":1982.2549999807961,"stimulus":"audio/actual/s3-blind-10bis_jenseigne_beaucoup.mp3","button_pressed":"0","test_part":"test","phrase":"10bis","condition":"blind","subject":"s3","trial_type":"audio-button-response","trial_index":58,"time_elapsed":94579,"internal_node_id":"0.0-1.0-0.28"},{"rt":1718.8850000093225,"stimulus":"audio/actual/s7-lecture-10_jean_saigne_beaucoup-8_cut1norm.mp3","button_pressed":"1","test_part":"test","phrase":"10","condition":"lecture","subject":"s7","trial_type":"audio-button-response","trial_index":60,"time_elapsed":96899,"internal_node_id":"0.0-1.0-0.29"},{"rt":1981.354999996256,"stimulus":"audio/actual/s3-lecture-10bis_jenseigne_beaucoup-3_cut1norm.mp3","button_pressed":"1","test_part":"test","phrase":"10bis","condition":"lecture","subject":"s3","trial_type":"audio-button-response","trial_index":62,"time_elapsed":99379,"internal_node_id":"0.0-1.0-0.30"},{"rt":2070.095000002766,"stimulus":"audio/actual/s10-lecture-10bis_jenseigne_beaucoup-11_cut1norm.mp3","button_pressed":"0","test_part":"test","phrase":"10bis","condition":"lecture","subject":"s10","trial_type":"audio-button-response","trial_index":64,"time_elapsed":101939,"internal_node_id":"0.0-1.0-0.31"},{"rt":2489.769999985583,"stimulus":"audio/actual/s8-blind-10bis_jenseigne_beaucoup.mp3","button_pressed":"1","test_part":"test","phrase":"10bis","condition":"blind","subject":"s8","trial_type":"audio-button-response","trial_index":66,"time_elapsed":104789,"internal_node_id":"0.0-1.0-0.32"},{"rt":1738.695000007283,"stimulus":"audio/actual/s5-imitation-10_jean_saigne_beaucoup-10_cut1norm.mp3","button_pressed":"0","test_part":"test","phrase":"10","condition":"imitation","subject":"s5","trial_type":"audio-button-response","trial_index":68,"time_elapsed":106819,"internal_node_id":"0.0-1.0-0.33"},{"rt":2013.68000000366,"stimulus":"audio/actual/s2-imitation-10bis_jenseigne_beaucoup-5_cut1norm.mp3","button_pressed":"1","test_part":"test","phrase":"10bis","condition":"imitation","subject":"s2","trial_type":"audio-button-response","trial_index":70,"time_elapsed":109409,"internal_node_id":"0.0-1.0-0.34"},{"rt":1890.7100000069477,"stimulus":"audio/actual/s5-lecture-10bis_jenseigne_beaucoup-4_cut1norm.mp3","button_pressed":"0","test_part":"test","phrase":"10bis","condition":"lecture","subject":"s5","trial_type":"audio-button-response","trial_index":72,"time_elapsed":111709,"internal_node_id":"0.0-1.0-0.35"},{"rt":2671.889999997802,"stimulus":"audio/actual/s3-guide-10_jean_saigne_beaucoup.mp3","button_pressed":"0","test_part":"test","phrase":"10","condition":"guide","subject":"s3","trial_type":"audio-button-response","trial_index":74,"time_elapsed":114919,"internal_node_id":"0.0-1.0-0.36"},{"rt":2087.6050000078976,"stimulus":"audio/actual/s7-blind-10_jean_saigne_beaucoup.mp3","button_pressed":"0","test_part":"test","phrase":"10","condition":"blind","subject":"s7","trial_type":"audio-button-response","trial_index":76,"time_elapsed":117769,"internal_node_id":"0.0-1.0-0.37"},{"rt":2519.9800000118557,"stimulus":"audio/actual/s3-lecture-10_jean_saigne_beaucoup-2_cut1norm.mp3","button_pressed":"0","test_part":"test","phrase":"10","condition":"lecture","subject":"s3","trial_type":"audio-button-response","trial_index":78,"time_elapsed":120465,"internal_node_id":"0.0-1.0-0.38"},{"rt":1416.1350000067614,"stimulus":"audio/actual/s7-imitation-10bis_jenseigne_beaucoup-2_cut1norm.mp3","button_pressed":"1","test_part":"test","phrase":"10bis","condition":"imitation","subject":"s7","trial_type":"audio-button-response","trial_index":80,"time_elapsed":122228,"internal_node_id":"0.0-1.0-0.39"},{"rt":3196.155000012368,"stimulus":"audio/actual/s4-guide-10bis_jenseigne_beaucoup.mp3","button_pressed":"1","test_part":"test","phrase":"10bis","condition":"guide","subject":"s4","trial_type":"audio-button-response","trial_index":82,"time_elapsed":125878,"internal_node_id":"0.0-1.0-0.40"},{"rt":1804.9150000151712,"stimulus":"audio/actual/s10-guide-10bis_jenseigne_beaucoup.mp3","button_pressed":"0","test_part":"test","phrase":"10bis","condition":"guide","subject":"s10","trial_type":"audio-button-response","trial_index":84,"time_elapsed":127889,"internal_node_id":"0.0-1.0-0.41"},{"rt":1711.1649999860674,"stimulus":"audio/actual/s9-lecture-10bis_jenseigne_beaucoup-2_cut1norm.mp3","button_pressed":"1","test_part":"test","phrase":"10bis","condition":"lecture","subject":"s9","trial_type":"audio-button-response","trial_index":86,"time_elapsed":129949,"internal_node_id":"0.0-1.0-0.42"},{"rt":1615.5150000122376,"stimulus":"audio/actual/s10-imitation-10_jean_saigne_beaucoup-11_cut1norm.mp3","button_pressed":"0","test_part":"test","phrase":"10","condition":"imitation","subject":"s10","trial_type":"audio-button-response","trial_index":88,"time_elapsed":131899,"internal_node_id":"0.0-1.0-0.43"},{"rt":2804.130000004079,"stimulus":"audio/actual/s8-guide-10bis_jenseigne_beaucoup.mp3","button_pressed":"1","test_part":"test","phrase":"10bis","condition":"guide","subject":"s8","trial_type":"audio-button-response","trial_index":90,"time_elapsed":135084,"internal_node_id":"0.0-1.0-0.44"},{"rt":1788.20499998983,"stimulus":"audio/actual/s1-guide-10_jean_saigne_beaucoup.mp3","button_pressed":"0","test_part":"test","phrase":"10","condition":"guide","subject":"s1","trial_type":"audio-button-response","trial_index":92,"time_elapsed":137069,"internal_node_id":"0.0-1.0-0.45"},{"rt":1854.5549999980722,"stimulus":"audio/actual/s6-lecture-10_jean_saigne_beaucoup-1_cut1norm.mp3","button_pressed":"1","test_part":"test","phrase":"10","condition":"lecture","subject":"s6","trial_type":"audio-button-response","trial_index":94,"time_elapsed":139632,"internal_node_id":"0.0-1.0-0.46"},{"rt":4528.9300000004005,"stimulus":"audio/actual/s1-imitation-10bis_jenseigne_beaucoup-10_cut1norm.mp3","button_pressed":"0","test_part":"test","phrase":"10bis","condition":"imitation","subject":"s1","trial_type":"audio-button-response","trial_index":96,"time_elapsed":145539,"internal_node_id":"0.0-1.0-0.47"},{"rt":3732.2649999987334,"stimulus":"audio/actual/s6-guide-10_jean_saigne_beaucoup.mp3","button_pressed":"1","test_part":"test","phrase":"10","condition":"guide","subject":"s6","trial_type":"audio-button-response","trial_index":98,"time_elapsed":149993,"internal_node_id":"0.0-1.0-0.48"},{"rt":1901.545000000624,"stimulus":"audio/actual/s2-guide-10_jean_saigne_beaucoup.mp3","button_pressed":"1","test_part":"test","phrase":"10","condition":"guide","subject":"s2","trial_type":"audio-button-response","trial_index":100,"time_elapsed":152323,"internal_node_id":"0.0-1.0-0.49"},{"rt":1842.6449999969918,"stimulus":"audio/actual/s1-guide-10bis_jenseigne_beaucoup.mp3","button_pressed":"0","test_part":"test","phrase":"10bis","condition":"guide","subject":"s1","trial_type":"audio-button-response","trial_index":102,"time_elapsed":154962,"internal_node_id":"0.0-1.0-0.50"},{"rt":1545.125000004191,"stimulus":"audio/actual/s9-lecture-10_jean_saigne_beaucoup-3_cut1norm.mp3","button_pressed":"0","test_part":"test","phrase":"10","condition":"lecture","subject":"s9","trial_type":"audio-button-response","trial_index":104,"time_elapsed":162310,"internal_node_id":"0.0-1.0-0.51"},{"rt":1639.8099999933038,"stimulus":"audio/actual/s4-imitation-10bis_jenseigne_beaucoup-0_cut1norm.mp3","button_pressed":"1","test_part":"test","phrase":"10bis","condition":"imitation","subject":"s4","trial_type":"audio-button-response","trial_index":106,"time_elapsed":164422,"internal_node_id":"0.0-1.0-0.52"},{"rt":2820.84999998915,"stimulus":"audio/actual/s9-blind-10_jean_saigne_beaucoup.mp3","button_pressed":"0","test_part":"test","phrase":"10","condition":"blind","subject":"s9","trial_type":"audio-button-response","trial_index":108,"time_elapsed":168842,"internal_node_id":"0.0-1.0-0.53"},{"rt":2369.910000008531,"stimulus":"audio/actual/s4-lecture-10bis_jenseigne_beaucoup-0_cut1norm.mp3","button_pressed":"1","test_part":"test","phrase":"10bis","condition":"lecture","subject":"s4","trial_type":"audio-button-response","trial_index":110,"time_elapsed":171779,"internal_node_id":"0.0-1.0-0.54"},{"rt":2599.5899999979883,"stimulus":"audio/actual/s7-lecture-10bis_jenseigne_beaucoup-9_cut1norm.mp3","button_pressed":"1","test_part":"test","phrase":"10bis","condition":"lecture","subject":"s7","trial_type":"audio-button-response","trial_index":112,"time_elapsed":175043,"internal_node_id":"0.0-1.0-0.55"},{"rt":1731.4900000055786,"stimulus":"audio/actual/s1-lecture-10bis_jenseigne_beaucoup-3_cut1norm.mp3","button_pressed":"1","test_part":"test","phrase":"10bis","condition":"lecture","subject":"s1","trial_type":"audio-button-response","trial_index":114,"time_elapsed":177152,"internal_node_id":"0.0-1.0-0.56"},{"rt":1998.1600000173785,"stimulus":"audio/actual/s6-guide-10bis_jenseigne_beaucoup.mp3","button_pressed":"1","test_part":"test","phrase":"10bis","condition":"guide","subject":"s6","trial_type":"audio-button-response","trial_index":116,"time_elapsed":179542,"internal_node_id":"0.0-1.0-0.57"},{"rt":2152.5149999943096,"stimulus":"audio/actual/s4-guide-10_jean_saigne_beaucoup.mp3","button_pressed":"0","test_part":"test","phrase":"10","condition":"guide","subject":"s4","trial_type":"audio-button-response","trial_index":118,"time_elapsed":182172,"internal_node_id":"0.0-1.0-0.58"},{"rt":1701.0849999787752,"stimulus":"audio/actual/s10-guide-10_jean_saigne_beaucoup.mp3","button_pressed":"0","test_part":"test","phrase":"10","condition":"guide","subject":"s10","trial_type":"audio-button-response","trial_index":120,"time_elapsed":184452,"internal_node_id":"0.0-1.0-0.59"},{"rt":1911.9899999932386,"stimulus":"audio/actual/s7-imitation-10_jean_saigne_beaucoup-3_cut1norm.mp3","button_pressed":"0","test_part":"test","phrase":"10","condition":"imitation","subject":"s7","trial_type":"audio-button-response","trial_index":122,"time_elapsed":186862,"internal_node_id":"0.0-1.0-0.60"},{"rt":1786.6999999969266,"stimulus":"audio/actual/s4-lecture-10_jean_saigne_beaucoup-1_cut1norm.mp3","button_pressed":"0","test_part":"test","phrase":"10","condition":"lecture","subject":"s4","trial_type":"audio-button-response","trial_index":124,"time_elapsed":189045,"internal_node_id":"0.0-1.0-0.61"},{"rt":1706.8699999945238,"stimulus":"audio/actual/s2-lecture-10_jean_saigne_beaucoup-7_cut1norm.mp3","button_pressed":"0","test_part":"test","phrase":"10","condition":"lecture","subject":"s2","trial_type":"audio-button-response","trial_index":126,"time_elapsed":191302,"internal_node_id":"0.0-1.0-0.62"},{"rt":2884.2949999962,"stimulus":"audio/actual/s10-blind-10_jean_saigne_beaucoup.mp3","button_pressed":"1","test_part":"test","phrase":"10","condition":"blind","subject":"s10","trial_type":"audio-button-response","trial_index":128,"time_elapsed":194659,"internal_node_id":"0.0-1.0-0.63"},{"rt":2858.795000007376,"stimulus":"audio/actual/s6-imitation-10bis_jenseigne_beaucoup-4_cut1norm.mp3","button_pressed":"1","test_part":"test","phrase":"10bis","condition":"imitation","subject":"s6","trial_type":"audio-button-response","trial_index":130,"time_elapsed":197732,"internal_node_id":"0.0-1.0-0.64"},{"rt":2050.9650000021793,"stimulus":"audio/actual/s2-lecture-10bis_jenseigne_beaucoup-6_cut1norm.mp3","button_pressed":"0","test_part":"test","phrase":"10bis","condition":"lecture","subject":"s2","trial_type":"audio-button-response","trial_index":132,"time_elapsed":200052,"internal_node_id":"0.0-1.0-0.65"},{"rt":1933.725000009872,"stimulus":"audio/actual/s5-blind-10_jean_saigne_beaucoup.mp3","button_pressed":"0","test_part":"test","phrase":"10","condition":"blind","subject":"s5","trial_type":"audio-button-response","trial_index":134,"time_elapsed":202262,"internal_node_id":"0.0-1.0-0.66"},{"rt":1748.714999994263,"stimulus":"audio/actual/s10-lecture-10_jean_saigne_beaucoup-10_cut1norm.mp3","button_pressed":"1","test_part":"test","phrase":"10","condition":"lecture","subject":"s10","trial_type":"audio-button-response","trial_index":136,"time_elapsed":204502,"internal_node_id":"0.0-1.0-0.67"},{"rt":1579.490000003716,"stimulus":"audio/actual/s9-guide-10bis_jenseigne_beaucoup.mp3","button_pressed":"0","test_part":"test","phrase":"10bis","condition":"guide","subject":"s9","trial_type":"audio-button-response","trial_index":138,"time_elapsed":206402,"internal_node_id":"0.0-1.0-0.68"},{"rt":1479.0999999968335,"stimulus":"audio/actual/s3-blind-10_jean_saigne_beaucoup.mp3","button_pressed":"1","test_part":"test","phrase":"10","condition":"blind","subject":"s3","trial_type":"audio-button-response","trial_index":140,"time_elapsed":208419,"internal_node_id":"0.0-1.0-0.69"},{"rt":1340.3499999840278,"stimulus":"audio/actual/s9-imitation-10_jean_saigne_beaucoup-4_cut1norm.mp3","button_pressed":"0","test_part":"test","phrase":"10","condition":"imitation","subject":"s9","trial_type":"audio-button-response","trial_index":142,"time_elapsed":210279,"internal_node_id":"0.0-1.0-0.70"},{"rt":1806.475000019418,"stimulus":"audio/actual/s7-guide-10_jean_saigne_beaucoup.mp3","button_pressed":"1","test_part":"test","phrase":"10","condition":"guide","subject":"s7","trial_type":"audio-button-response","trial_index":144,"time_elapsed":212959,"internal_node_id":"0.0-1.0-0.71"},{"rt":3493.1550000037532,"stimulus":"audio/actual/s6-blind-10bis_jenseigne_beaucoup.mp3","button_pressed":"0","test_part":"test","phrase":"10bis","condition":"blind","subject":"s6","trial_type":"audio-button-response","trial_index":146,"time_elapsed":217018,"internal_node_id":"0.0-1.0-0.72"},{"rt":1986.7800000065472,"stimulus":"audio/actual/s2-guide-10bis_jenseigne_beaucoup.mp3","button_pressed":"1","test_part":"test","phrase":"10bis","condition":"guide","subject":"s2","trial_type":"audio-button-response","trial_index":148,"time_elapsed":219359,"internal_node_id":"0.0-1.0-0.73"},{"rt":2115.380000002915,"stimulus":"audio/actual/s3-imitation-10bis_jenseigne_beaucoup-3_cut1norm.mp3","button_pressed":"1","test_part":"test","phrase":"10bis","condition":"imitation","subject":"s3","trial_type":"audio-button-response","trial_index":150,"time_elapsed":222009,"internal_node_id":"0.0-1.0-0.74"},{"rt":1770.4399999929592,"stimulus":"audio/actual/s4-imitation-10_jean_saigne_beaucoup-1_cut1norm.mp3","button_pressed":"0","test_part":"test","phrase":"10","condition":"imitation","subject":"s4","trial_type":"audio-button-response","trial_index":152,"time_elapsed":224059,"internal_node_id":"0.0-1.0-0.75"},{"rt":1610.854999977164,"stimulus":"audio/actual/s7-blind-10bis_jenseigne_beaucoup.mp3","button_pressed":"1","test_part":"test","phrase":"10bis","condition":"blind","subject":"s7","trial_type":"audio-button-response","trial_index":154,"time_elapsed":226118,"internal_node_id":"0.0-1.0-0.76"},{"rt":2110.8949999907054,"stimulus":"audio/actual/s8-imitation-10bis_jenseigne_beaucoup-11_cut1norm.mp3","button_pressed":"1","test_part":"test","phrase":"10bis","condition":"imitation","subject":"s8","trial_type":"audio-button-response","trial_index":156,"time_elapsed":228469,"internal_node_id":"0.0-1.0-0.77"},{"rt":1405.9249999991152,"stimulus":"audio/actual/s9-imitation-10bis_jenseigne_beaucoup-5_cut1norm.mp3","button_pressed":"0","test_part":"test","phrase":"10bis","condition":"imitation","subject":"s9","trial_type":"audio-button-response","trial_index":158,"time_elapsed":230119,"internal_node_id":"0.0-1.0-0.78"},{"rt":1393.2199999981094,"stimulus":"audio/actual/s5-guide-10_jean_saigne_beaucoup.mp3","button_pressed":"1","test_part":"test","phrase":"10","condition":"guide","subject":"s5","trial_type":"audio-button-response","trial_index":160,"time_elapsed":231978,"internal_node_id":"0.0-1.0-0.79"}]