[{"rt":3597.28500014171,"stimulus":"audio/actual/s10-imitation-10bis_jenseigne_beaucoup-10_cut1norm.mp3","button_pressed":"2","test_part":"test","phrase":"10bis","condition":"imitation","subject":"s10","trial_type":"audio-button-response","trial_index":1,"time_elapsed":29541,"internal_node_id":"0.0-1.0-0.0"},{"rt":7591.579999774694,"stimulus":"audio/actual/s10-imitation-10bis_jenseigne_beaucoup-10_cut1norm.mp3","button_pressed":"0","test_part":"test","phrase":"10bis","condition":"imitation","subject":"s10","trial_type":"audio-button-response","trial_index":2,"time_elapsed":37135,"internal_node_id":"0.0-1.0-1.0-0.0"},{"rt":7323.5299999359995,"stimulus":"audio/actual/s3-blind-10_jean_saigne_beaucoup.mp3","button_pressed":"0","test_part":"test","phrase":"10","condition":"blind","subject":"s3","trial_type":"audio-button-response","trial_index":4,"time_elapsed":45939,"internal_node_id":"0.0-1.0-0.1"},{"rt":2105.930000077933,"stimulus":"audio/actual/s5-blind-10_jean_saigne_beaucoup.mp3","button_pressed":"0","test_part":"test","phrase":"10","condition":"blind","subject":"s5","trial_type":"audio-button-response","trial_index":6,"time_elapsed":48700,"internal_node_id":"0.0-1.0-0.2"},{"rt":6003.105000127107,"stimulus":"audio/actual/s3-guide-10_jean_saigne_beaucoup.mp3","button_pressed":"1","test_part":"test","phrase":"10","condition":"guide","subject":"s3","trial_type":"audio-button-response","trial_index":8,"time_elapsed":55269,"internal_node_id":"0.0-1.0-0.3"},{"rt":1543.220000108704,"stimulus":"audio/actual/s5-lecture-10bis_jenseigne_beaucoup-4_cut1norm.mp3","button_pressed":"1","test_part":"test","phrase":"10bis","condition":"lecture","subject":"s5","trial_type":"audio-button-response","trial_index":10,"time_elapsed":57269,"internal_node_id":"0.0-1.0-0.4"},{"rt":1958.0049999058247,"stimulus":"audio/actual/s3-lecture-10bis_jenseigne_beaucoup-3_cut1norm.mp3","button_pressed":"1","test_part":"test","phrase":"10bis","condition":"lecture","subject":"s3","trial_type":"audio-button-response","trial_index":12,"time_elapsed":59875,"internal_node_id":"0.0-1.0-0.5"},{"rt":1844.9850000906736,"stimulus":"audio/actual/s8-imitation-10bis_jenseigne_beaucoup-11_cut1norm.mp3","button_pressed":"1","test_part":"test","phrase":"10bis","condition":"imitation","subject":"s8","trial_type":"audio-button-response","trial_index":14,"time_elapsed":62526,"internal_node_id":"0.0-1.0-0.6"},{"rt":2239.1199998091906,"stimulus":"audio/actual/s1-lecture-10bis_jenseigne_beaucoup-3_cut1norm.mp3","button_pressed":"1","test_part":"test","phrase":"10bis","condition":"lecture","subject":"s1","trial_type":"audio-button-response","trial_index":16,"time_elapsed":65477,"internal_node_id":"0.0-1.0-0.7"},{"rt":7378.809999907389,"stimulus":"audio/actual/s9-guide-10_jean_saigne_beaucoup.mp3","button_pressed":"0","test_part":"test","phrase":"10","condition":"guide","subject":"s9","trial_type":"audio-button-response","trial_index":18,"time_elapsed":73803,"internal_node_id":"0.0-1.0-0.8"},{"rt":2124.4500000029802,"stimulus":"audio/actual/s1-imitation-10_jean_saigne_beaucoup-11_cut1norm.mp3","button_pressed":"0","test_part":"test","phrase":"10","condition":"imitation","subject":"s1","trial_type":"audio-button-response","trial_index":20,"time_elapsed":76728,"internal_node_id":"0.0-1.0-0.9"},{"rt":3097.614999860525,"stimulus":"audio/actual/s2-lecture-10_jean_saigne_beaucoup-7_cut1norm.mp3","button_pressed":"0","test_part":"test","phrase":"10","condition":"lecture","subject":"s2","trial_type":"audio-button-response","trial_index":22,"time_elapsed":80299,"internal_node_id":"0.0-1.0-0.10"},{"rt":2627.8999999631196,"stimulus":"audio/actual/s4-imitation-10_jean_saigne_beaucoup-1_cut1norm.mp3","button_pressed":"0","test_part":"test","phrase":"10","condition":"imitation","subject":"s4","trial_type":"audio-button-response","trial_index":24,"time_elapsed":83618,"internal_node_id":"0.0-1.0-0.11"},{"rt":2828.114999923855,"stimulus":"audio/actual/s3-guide-10bis_jenseigne_beaucoup.mp3","button_pressed":"2","test_part":"test","phrase":"10bis","condition":"guide","subject":"s3","trial_type":"audio-button-response","trial_index":26,"time_elapsed":87040,"internal_node_id":"0.0-1.0-0.12"},{"rt":2642.5900000613183,"stimulus":"audio/actual/s3-guide-10bis_jenseigne_beaucoup.mp3","button_pressed":"0","test_part":"test","phrase":"10bis","condition":"guide","subject":"s3","trial_type":"audio-button-response","trial_index":27,"time_elapsed":89684,"internal_node_id":"0.0-1.0-1.12-0.12"},{"rt":1948.355000000447,"stimulus":"audio/actual/s8-guide-10bis_jenseigne_beaucoup.mp3","button_pressed":"1","test_part":"test","phrase":"10bis","condition":"guide","subject":"s8","trial_type":"audio-button-response","trial_index":29,"time_elapsed":92156,"internal_node_id":"0.0-1.0-0.13"},{"rt":8423.260000068694,"stimulus":"audio/actual/s4-blind-10bis_jenseigne_beaucoup.mp3","button_pressed":"2","test_part":"test","phrase":"10bis","condition":"blind","subject":"s4","trial_type":"audio-button-response","trial_index":31,"time_elapsed":101108,"internal_node_id":"0.0-1.0-0.14"},{"rt":5476.170000154525,"stimulus":"audio/actual/s4-blind-10bis_jenseigne_beaucoup.mp3","button_pressed":"1","test_part":"test","phrase":"10bis","condition":"blind","subject":"s4","trial_type":"audio-button-response","trial_index":32,"time_elapsed":106586,"internal_node_id":"0.0-1.0-1.14-0.14"},{"rt":2399.619999807328,"stimulus":"audio/actual/s6-lecture-10_jean_saigne_beaucoup-1_cut1norm.mp3","button_pressed":"0","test_part":"test","phrase":"10","condition":"lecture","subject":"s6","trial_type":"audio-button-response","trial_index":34,"time_elapsed":109764,"internal_node_id":"0.0-1.0-0.15"},{"rt":2281.2649998813868,"stimulus":"audio/actual/s9-blind-10bis_jenseigne_beaucoup.mp3","button_pressed":"1","test_part":"test","phrase":"10bis","condition":"blind","subject":"s9","trial_type":"audio-button-response","trial_index":36,"time_elapsed":115014,"internal_node_id":"0.0-1.0-0.16"},{"rt":1825.3250000998378,"stimulus":"audio/actual/s7-blind-10bis_jenseigne_beaucoup.mp3","button_pressed":"1","test_part":"test","phrase":"10bis","condition":"blind","subject":"s7","trial_type":"audio-button-response","trial_index":38,"time_elapsed":117768,"internal_node_id":"0.0-1.0-0.17"},{"rt":5252.850000048056,"stimulus":"audio/actual/s10-guide-10bis_jenseigne_beaucoup.mp3","button_pressed":"1","test_part":"test","phrase":"10bis","condition":"guide","subject":"s10","trial_type":"audio-button-response","trial_index":40,"time_elapsed":123536,"internal_node_id":"0.0-1.0-0.18"},{"rt":2507.390000158921,"stimulus":"audio/actual/s9-guide-10bis_jenseigne_beaucoup.mp3","button_pressed":"1","test_part":"test","phrase":"10bis","condition":"guide","subject":"s9","trial_type":"audio-button-response","trial_index":42,"time_elapsed":126636,"internal_node_id":"0.0-1.0-0.19"},{"rt":4895.3249999322,"stimulus":"audio/actual/s10-blind-10bis_jenseigne_beaucoup.mp3","button_pressed":"2","test_part":"test","phrase":"10bis","condition":"blind","subject":"s10","trial_type":"audio-button-response","trial_index":44,"time_elapsed":132010,"internal_node_id":"0.0-1.0-0.20"},{"rt":1991.9400000944734,"stimulus":"audio/actual/s10-blind-10bis_jenseigne_beaucoup.mp3","button_pressed":"0","test_part":"test","phrase":"10bis","condition":"blind","subject":"s10","trial_type":"audio-button-response","trial_index":45,"time_elapsed":134004,"internal_node_id":"0.0-1.0-1.20-0.20"},{"rt":10849.644999951124,"stimulus":"audio/actual/s9-imitation-10bis_jenseigne_beaucoup-5_cut1norm.mp3","button_pressed":"2","test_part":"test","phrase":"10bis","condition":"imitation","subject":"s9","trial_type":"audio-button-response","trial_index":47,"time_elapsed":145476,"internal_node_id":"0.0-1.0-0.21"},{"rt":3999.769999878481,"stimulus":"audio/actual/s9-imitation-10bis_jenseigne_beaucoup-5_cut1norm.mp3","button_pressed":"1","test_part":"test","phrase":"10bis","condition":"imitation","subject":"s9","trial_type":"audio-button-response","trial_index":48,"time_elapsed":149477,"internal_node_id":"0.0-1.0-1.21-0.21"},{"rt":2145.0549999717623,"stimulus":"audio/actual/s6-imitation-10_jean_saigne_beaucoup-5_cut1norm.mp3","button_pressed":"0","test_part":"test","phrase":"10","condition":"imitation","subject":"s6","trial_type":"audio-button-response","trial_index":50,"time_elapsed":153331,"internal_node_id":"0.0-1.0-0.22"},{"rt":1985.385000007227,"stimulus":"audio/actual/s7-blind-10_jean_saigne_beaucoup.mp3","button_pressed":"0","test_part":"test","phrase":"10","condition":"blind","subject":"s7","trial_type":"audio-button-response","trial_index":52,"time_elapsed":156013,"internal_node_id":"0.0-1.0-0.23"},{"rt":4409.470000071451,"stimulus":"audio/actual/s5-blind-10bis_jenseigne_beaucoup.mp3","button_pressed":"0","test_part":"test","phrase":"10bis","condition":"blind","subject":"s5","trial_type":"audio-button-response","trial_index":54,"time_elapsed":161004,"internal_node_id":"0.0-1.0-0.24"},{"rt":1784.0050000231713,"stimulus":"audio/actual/s7-guide-10_jean_saigne_beaucoup.mp3","button_pressed":"0","test_part":"test","phrase":"10","condition":"guide","subject":"s7","trial_type":"audio-button-response","trial_index":56,"time_elapsed":163296,"internal_node_id":"0.0-1.0-0.25"},{"rt":14779.210000066087,"stimulus":"audio/actual/s3-imitation-10bis_jenseigne_beaucoup-3_cut1norm.mp3","button_pressed":"2","test_part":"test","phrase":"10bis","condition":"imitation","subject":"s3","trial_type":"audio-button-response","trial_index":58,"time_elapsed":178581,"internal_node_id":"0.0-1.0-0.26"},{"rt":3623.9199999254197,"stimulus":"audio/actual/s3-imitation-10bis_jenseigne_beaucoup-3_cut1norm.mp3","button_pressed":"0","test_part":"test","phrase":"10bis","condition":"imitation","subject":"s3","trial_type":"audio-button-response","trial_index":59,"time_elapsed":182207,"internal_node_id":"0.0-1.0-1.26-0.26"},{"rt":1895.1949998736382,"stimulus":"audio/actual/s6-imitation-10bis_jenseigne_beaucoup-4_cut1norm.mp3","button_pressed":"2","test_part":"test","phrase":"10bis","condition":"imitation","subject":"s6","trial_type":"audio-button-response","trial_index":61,"time_elapsed":185086,"internal_node_id":"0.0-1.0-0.27"},{"rt":1804.5349998865277,"stimulus":"audio/actual/s6-imitation-10bis_jenseigne_beaucoup-4_cut1norm.mp3","button_pressed":"1","test_part":"test","phrase":"10bis","condition":"imitation","subject":"s6","trial_type":"audio-button-response","trial_index":62,"time_elapsed":186891,"internal_node_id":"0.0-1.0-1.27-0.27"},{"rt":5090.020000003278,"stimulus":"audio/actual/s4-guide-10bis_jenseigne_beaucoup.mp3","button_pressed":"0","test_part":"test","phrase":"10bis","condition":"guide","subject":"s4","trial_type":"audio-button-response","trial_index":64,"time_elapsed":192470,"internal_node_id":"0.0-1.0-0.28"},{"rt":10133.905000053346,"stimulus":"audio/actual/s10-guide-10_jean_saigne_beaucoup.mp3","button_pressed":"0","test_part":"test","phrase":"10","condition":"guide","subject":"s10","trial_type":"audio-button-response","trial_index":66,"time_elapsed":203211,"internal_node_id":"0.0-1.0-0.29"},{"rt":2691.2149998825043,"stimulus":"audio/actual/s5-imitation-10_jean_saigne_beaucoup-10_cut1norm.mp3","button_pressed":"0","test_part":"test","phrase":"10","condition":"imitation","subject":"s5","trial_type":"audio-button-response","trial_index":68,"time_elapsed":206467,"internal_node_id":"0.0-1.0-0.30"},{"rt":3168.2799998670816,"stimulus":"audio/actual/s4-guide-10_jean_saigne_beaucoup.mp3","button_pressed":"0","test_part":"test","phrase":"10","condition":"guide","subject":"s4","trial_type":"audio-button-response","trial_index":70,"time_elapsed":210317,"internal_node_id":"0.0-1.0-0.31"},{"rt":2742.4449999816716,"stimulus":"audio/actual/s9-lecture-10_jean_saigne_beaucoup-3_cut1norm.mp3","button_pressed":"0","test_part":"test","phrase":"10","condition":"lecture","subject":"s9","trial_type":"audio-button-response","trial_index":72,"time_elapsed":213597,"internal_node_id":"0.0-1.0-0.32"},{"rt":3020.3850001562387,"stimulus":"audio/actual/s6-guide-10bis_jenseigne_beaucoup.mp3","button_pressed":"1","test_part":"test","phrase":"10bis","condition":"guide","subject":"s6","trial_type":"audio-button-response","trial_index":74,"time_elapsed":217277,"internal_node_id":"0.0-1.0-0.33"},{"rt":4869.900000048801,"stimulus":"audio/actual/s4-blind-10_jean_saigne_beaucoup.mp3","button_pressed":"1","test_part":"test","phrase":"10","condition":"blind","subject":"s4","trial_type":"audio-button-response","trial_index":76,"time_elapsed":222488,"internal_node_id":"0.0-1.0-0.34"},{"rt":13891.87499997206,"stimulus":"audio/actual/s7-imitation-10bis_jenseigne_beaucoup-2_cut1norm.mp3","button_pressed":"1","test_part":"test","phrase":"10bis","condition":"imitation","subject":"s7","trial_type":"audio-button-response","trial_index":78,"time_elapsed":236845,"internal_node_id":"0.0-1.0-0.35"},{"rt":4019.4000001065433,"stimulus":"audio/actual/s10-lecture-10_jean_saigne_beaucoup-10_cut1norm.mp3","button_pressed":"0","test_part":"test","phrase":"10","condition":"lecture","subject":"s10","trial_type":"audio-button-response","trial_index":80,"time_elapsed":241913,"internal_node_id":"0.0-1.0-0.36"},{"rt":1625.9850000496954,"stimulus":"audio/actual/s7-guide-10bis_jenseigne_beaucoup.mp3","button_pressed":"1","test_part":"test","phrase":"10bis","condition":"guide","subject":"s7","trial_type":"audio-button-response","trial_index":82,"time_elapsed":244093,"internal_node_id":"0.0-1.0-0.37"},{"rt":2207.3099999688566,"stimulus":"audio/actual/s2-lecture-10bis_jenseigne_beaucoup-6_cut1norm.mp3","button_pressed":"0","test_part":"test","phrase":"10bis","condition":"lecture","subject":"s2","trial_type":"audio-button-response","trial_index":84,"time_elapsed":246753,"internal_node_id":"0.0-1.0-0.38"},{"rt":2990.334999980405,"stimulus":"audio/actual/s8-lecture-10_jean_saigne_beaucoup-10_cut1norm.mp3","button_pressed":"0","test_part":"test","phrase":"10","condition":"lecture","subject":"s8","trial_type":"audio-button-response","trial_index":86,"time_elapsed":250855,"internal_node_id":"0.0-1.0-0.39"},{"rt":2675.969999982044,"stimulus":"audio/actual/s3-lecture-10_jean_saigne_beaucoup-2_cut1norm.mp3","button_pressed":"0","test_part":"test","phrase":"10","condition":"lecture","subject":"s3","trial_type":"audio-button-response","trial_index":88,"time_elapsed":254001,"internal_node_id":"0.0-1.0-0.40"},{"rt":6455.620000138879,"stimulus":"audio/actual/s10-blind-10_jean_saigne_beaucoup.mp3","button_pressed":"0","test_part":"test","phrase":"10","condition":"blind","subject":"s10","trial_type":"audio-button-response","trial_index":90,"time_elapsed":261063,"internal_node_id":"0.0-1.0-0.41"},{"rt":2826.2899999972433,"stimulus":"audio/actual/s4-lecture-10bis_jenseigne_beaucoup-0_cut1norm.mp3","button_pressed":"1","test_part":"test","phrase":"10bis","condition":"lecture","subject":"s4","trial_type":"audio-button-response","trial_index":92,"time_elapsed":266225,"internal_node_id":"0.0-1.0-0.42"},{"rt":2336.3749999552965,"stimulus":"audio/actual/s2-blind-10bis_jenseigne_beaucoup.mp3","button_pressed":"1","test_part":"test","phrase":"10bis","condition":"blind","subject":"s2","trial_type":"audio-button-response","trial_index":94,"time_elapsed":268999,"internal_node_id":"0.0-1.0-0.43"},{"rt":2760.11999999173,"stimulus":"audio/actual/s5-guide-10_jean_saigne_beaucoup.mp3","button_pressed":"0","test_part":"test","phrase":"10","condition":"guide","subject":"s5","trial_type":"audio-button-response","trial_index":96,"time_elapsed":272177,"internal_node_id":"0.0-1.0-0.44"},{"rt":2125.7949999999255,"stimulus":"audio/actual/s2-guide-10_jean_saigne_beaucoup.mp3","button_pressed":"0","test_part":"test","phrase":"10","condition":"guide","subject":"s2","trial_type":"audio-button-response","trial_index":98,"time_elapsed":274539,"internal_node_id":"0.0-1.0-0.45"},{"rt":2410.334999905899,"stimulus":"audio/actual/s6-blind-10bis_jenseigne_beaucoup.mp3","button_pressed":"0","test_part":"test","phrase":"10bis","condition":"blind","subject":"s6","trial_type":"audio-button-response","trial_index":100,"time_elapsed":277387,"internal_node_id":"0.0-1.0-0.46"},{"rt":2235.2850001771003,"stimulus":"audio/actual/s2-guide-10bis_jenseigne_beaucoup.mp3","button_pressed":"1","test_part":"test","phrase":"10bis","condition":"guide","subject":"s2","trial_type":"audio-button-response","trial_index":102,"time_elapsed":280109,"internal_node_id":"0.0-1.0-0.47"},{"rt":25904.67999991961,"stimulus":"audio/actual/s1-blind-10bis_jenseigne_beaucoup.mp3","button_pressed":"2","test_part":"test","phrase":"10bis","condition":"blind","subject":"s1","trial_type":"audio-button-response","trial_index":104,"time_elapsed":306467,"internal_node_id":"0.0-1.0-0.48"},{"rt":3434.7999999299645,"stimulus":"audio/actual/s1-blind-10bis_jenseigne_beaucoup.mp3","button_pressed":"0","test_part":"test","phrase":"10bis","condition":"blind","subject":"s1","trial_type":"audio-button-response","trial_index":105,"time_elapsed":309904,"internal_node_id":"0.0-1.0-1.48-0.48"},{"rt":2191.0649999044836,"stimulus":"audio/actual/s8-imitation-10_jean_saigne_beaucoup-10_cut1norm.mp3","button_pressed":"0","test_part":"test","phrase":"10","condition":"imitation","subject":"s8","trial_type":"audio-button-response","trial_index":107,"time_elapsed":313097,"internal_node_id":"0.0-1.0-0.49"},{"rt":2382.169999880716,"stimulus":"audio/actual/s9-blind-10_jean_saigne_beaucoup.mp3","button_pressed":"0","test_part":"test","phrase":"10","condition":"blind","subject":"s9","trial_type":"audio-button-response","trial_index":109,"time_elapsed":316477,"internal_node_id":"0.0-1.0-0.50"},{"rt":4210.800000000745,"stimulus":"audio/actual/s10-lecture-10bis_jenseigne_beaucoup-11_cut1norm.mp3","button_pressed":"1","test_part":"test","phrase":"10bis","condition":"lecture","subject":"s10","trial_type":"audio-button-response","trial_index":111,"time_elapsed":321218,"internal_node_id":"0.0-1.0-0.51"},{"rt":1785.06000014022,"stimulus":"audio/actual/s7-lecture-10_jean_saigne_beaucoup-8_cut1norm.mp3","button_pressed":"0","test_part":"test","phrase":"10","condition":"lecture","subject":"s7","trial_type":"audio-button-response","trial_index":113,"time_elapsed":323555,"internal_node_id":"0.0-1.0-0.52"},{"rt":2618.269999977201,"stimulus":"audio/actual/s10-imitation-10_jean_saigne_beaucoup-11_cut1norm.mp3","button_pressed":"0","test_part":"test","phrase":"10","condition":"imitation","subject":"s10","trial_type":"audio-button-response","trial_index":115,"time_elapsed":326732,"internal_node_id":"0.0-1.0-0.53"},{"rt":2541.4550001733005,"stimulus":"audio/actual/s1-blind-10_jean_saigne_beaucoup.mp3","button_pressed":"0","test_part":"test","phrase":"10","condition":"blind","subject":"s1","trial_type":"audio-button-response","trial_index":117,"time_elapsed":329672,"internal_node_id":"0.0-1.0-0.54"},{"rt":1533.1999999471009,"stimulus":"audio/actual/s8-blind-10bis_jenseigne_beaucoup.mp3","button_pressed":"1","test_part":"test","phrase":"10bis","condition":"blind","subject":"s8","trial_type":"audio-button-response","trial_index":119,"time_elapsed":332283,"internal_node_id":"0.0-1.0-0.55"},{"rt":2055.099999997765,"stimulus":"audio/actual/s1-guide-10_jean_saigne_beaucoup.mp3","button_pressed":"0","test_part":"test","phrase":"10","condition":"guide","subject":"s1","trial_type":"audio-button-response","trial_index":121,"time_elapsed":334731,"internal_node_id":"0.0-1.0-0.56"},{"rt":3586.280000163242,"stimulus":"audio/actual/s6-blind-10_jean_saigne_beaucoup.mp3","button_pressed":"2","test_part":"test","phrase":"10","condition":"blind","subject":"s6","trial_type":"audio-button-response","trial_index":123,"time_elapsed":339147,"internal_node_id":"0.0-1.0-0.57"},{"rt":3286.904999986291,"stimulus":"audio/actual/s6-blind-10_jean_saigne_beaucoup.mp3","button_pressed":"0","test_part":"test","phrase":"10","condition":"blind","subject":"s6","trial_type":"audio-button-response","trial_index":124,"time_elapsed":342436,"internal_node_id":"0.0-1.0-1.57-0.57"},{"rt":1784.474999876693,"stimulus":"audio/actual/s5-lecture-10_jean_saigne_beaucoup-5_cut1norm.mp3","button_pressed":"0","test_part":"test","phrase":"10","condition":"lecture","subject":"s5","trial_type":"audio-button-response","trial_index":126,"time_elapsed":345291,"internal_node_id":"0.0-1.0-0.58"},{"rt":5864.485000027344,"stimulus":"audio/actual/s8-guide-10_jean_saigne_beaucoup.mp3","button_pressed":"2","test_part":"test","phrase":"10","condition":"guide","subject":"s8","trial_type":"audio-button-response","trial_index":128,"time_elapsed":351678,"internal_node_id":"0.0-1.0-0.59"},{"rt":2313.94000002183,"stimulus":"audio/actual/s8-guide-10_jean_saigne_beaucoup.mp3","button_pressed":"0","test_part":"test","phrase":"10","condition":"guide","subject":"s8","trial_type":"audio-button-response","trial_index":129,"time_elapsed":353993,"internal_node_id":"0.0-1.0-1.59-0.59"},{"rt":1938.8399999588728,"stimulus":"audio/actual/s7-imitation-10_jean_saigne_beaucoup-3_cut1norm.mp3","button_pressed":"0","test_part":"test","phrase":"10","condition":"imitation","subject":"s7","trial_type":"audio-button-response","trial_index":131,"time_elapsed":356638,"internal_node_id":"0.0-1.0-0.60"},{"rt":2438.8449999969453,"stimulus":"audio/actual/s4-lecture-10_jean_saigne_beaucoup-1_cut1norm.mp3","button_pressed":"0","test_part":"test","phrase":"10","condition":"lecture","subject":"s4","trial_type":"audio-button-response","trial_index":133,"time_elapsed":359461,"internal_node_id":"0.0-1.0-0.61"},{"rt":2690.5750001315027,"stimulus":"audio/actual/s6-lecture-10bis_jenseigne_beaucoup-0_cut1norm.mp3","button_pressed":"0","test_part":"test","phrase":"10bis","condition":"lecture","subject":"s6","trial_type":"audio-button-response","trial_index":135,"time_elapsed":362693,"internal_node_id":"0.0-1.0-0.62"},{"rt":2649.2950001265854,"stimulus":"audio/actual/s1-lecture-10_jean_saigne_beaucoup-2_cut1norm.mp3","button_pressed":"0","test_part":"test","phrase":"10","condition":"lecture","subject":"s1","trial_type":"audio-button-response","trial_index":137,"time_elapsed":365738,"internal_node_id":"0.0-1.0-0.63"},{"rt":1848.2250000815839,"stimulus":"audio/actual/s9-lecture-10bis_jenseigne_beaucoup-2_cut1norm.mp3","button_pressed":"1","test_part":"test","phrase":"10bis","condition":"lecture","subject":"s9","trial_type":"audio-button-response","trial_index":139,"time_elapsed":368046,"internal_node_id":"0.0-1.0-0.64"},{"rt":1384.9850001279265,"stimulus":"audio/actual/s5-guide-10bis_jenseigne_beaucoup.mp3","button_pressed":"1","test_part":"test","phrase":"10bis","condition":"guide","subject":"s5","trial_type":"audio-button-response","trial_index":141,"time_elapsed":370486,"internal_node_id":"0.0-1.0-0.65"},{"rt":1899.669999955222,"stimulus":"audio/actual/s9-imitation-10_jean_saigne_beaucoup-4_cut1norm.mp3","button_pressed":"0","test_part":"test","phrase":"10","condition":"imitation","subject":"s9","trial_type":"audio-button-response","trial_index":143,"time_elapsed":373028,"internal_node_id":"0.0-1.0-0.66"},{"rt":2666.3299999199808,"stimulus":"audio/actual/s1-guide-10bis_jenseigne_beaucoup.mp3","button_pressed":"0","test_part":"test","phrase":"10bis","condition":"guide","subject":"s1","trial_type":"audio-button-response","trial_index":145,"time_elapsed":376150,"internal_node_id":"0.0-1.0-0.67"},{"rt":3119.5400001015514,"stimulus":"audio/actual/s8-lecture-10bis_jenseigne_beaucoup-11_cut1norm.mp3","button_pressed":"0","test_part":"test","phrase":"10bis","condition":"lecture","subject":"s8","trial_type":"audio-button-response","trial_index":147,"time_elapsed":380042,"internal_node_id":"0.0-1.0-0.68"},{"rt":1919.7849999181926,"stimulus":"audio/actual/s2-imitation-10bis_jenseigne_beaucoup-5_cut1norm.mp3","button_pressed":"0","test_part":"test","phrase":"10bis","condition":"imitation","subject":"s2","trial_type":"audio-button-response","trial_index":149,"time_elapsed":382489,"internal_node_id":"0.0-1.0-0.69"},{"rt":1466.3949999958277,"stimulus":"audio/actual/s5-imitation-10bis_jenseigne_beaucoup-11_cut1norm.mp3","button_pressed":"1","test_part":"test","phrase":"10bis","condition":"imitation","subject":"s5","trial_type":"audio-button-response","trial_index":151,"time_elapsed":384271,"internal_node_id":"0.0-1.0-0.70"},{"rt":1870.5849999096245,"stimulus":"audio/actual/s2-imitation-10_jean_saigne_beaucoup-4_cut1norm.mp3","button_pressed":"0","test_part":"test","phrase":"10","condition":"imitation","subject":"s2","trial_type":"audio-button-response","trial_index":153,"time_elapsed":386451,"internal_node_id":"0.0-1.0-0.71"},{"rt":3141.0600000526756,"stimulus":"audio/actual/s3-blind-10bis_jenseigne_beaucoup.mp3","button_pressed":"0","test_part":"test","phrase":"10bis","condition":"blind","subject":"s3","trial_type":"audio-button-response","trial_index":155,"time_elapsed":390030,"internal_node_id":"0.0-1.0-0.72"},{"rt":1823.6899999901652,"stimulus":"audio/actual/s2-blind-10_jean_saigne_beaucoup.mp3","button_pressed":"1","test_part":"test","phrase":"10","condition":"blind","subject":"s2","trial_type":"audio-button-response","trial_index":157,"time_elapsed":392235,"internal_node_id":"0.0-1.0-0.73"},{"rt":1621.1500000208616,"stimulus":"audio/actual/s1-imitation-10bis_jenseigne_beaucoup-10_cut1norm.mp3","button_pressed":"1","test_part":"test","phrase":"10bis","condition":"imitation","subject":"s1","trial_type":"audio-button-response","trial_index":159,"time_elapsed":394887,"internal_node_id":"0.0-1.0-0.74"},{"rt":2892.414999892935,"stimulus":"audio/actual/s4-imitation-10bis_jenseigne_beaucoup-0_cut1norm.mp3","button_pressed":"1","test_part":"test","phrase":"10bis","condition":"imitation","subject":"s4","trial_type":"audio-button-response","trial_index":161,"time_elapsed":398489,"internal_node_id":"0.0-1.0-0.75"},{"rt":2038.0049999803305,"stimulus":"audio/actual/s7-lecture-10bis_jenseigne_beaucoup-9_cut1norm.mp3","button_pressed":"0","test_part":"test","phrase":"10bis","condition":"lecture","subject":"s7","trial_type":"audio-button-response","trial_index":163,"time_elapsed":400983,"internal_node_id":"0.0-1.0-0.76"},{"rt":4977.720000082627,"stimulus":"audio/actual/s6-guide-10_jean_saigne_beaucoup.mp3","button_pressed":"2","test_part":"test","phrase":"10","condition":"guide","subject":"s6","trial_type":"audio-button-response","trial_index":165,"time_elapsed":406397,"internal_node_id":"0.0-1.0-0.77"},{"rt":2226.134999888018,"stimulus":"audio/actual/s6-guide-10_jean_saigne_beaucoup.mp3","button_pressed":"0","test_part":"test","phrase":"10","condition":"guide","subject":"s6","trial_type":"audio-button-response","trial_index":166,"time_elapsed":408625,"internal_node_id":"0.0-1.0-1.77-0.77"},{"rt":6417.850000085309,"stimulus":"audio/actual/s8-blind-10_jean_saigne_beaucoup.mp3","button_pressed":"1","test_part":"test","phrase":"10","condition":"blind","subject":"s8","trial_type":"audio-button-response","trial_index":168,"time_elapsed":415523,"internal_node_id":"0.0-1.0-0.78"},{"rt":1902.46000001207,"stimulus":"audio/actual/s3-imitation-10_jean_saigne_beaucoup-2_cut1norm.mp3","button_pressed":"0","test_part":"test","phrase":"10","condition":"imitation","subject":"s3","trial_type":"audio-button-response","trial_index":170,"time_elapsed":418889,"internal_node_id":"0.0-1.0-0.79"}]