[{"rt":3072.490000165999,"stimulus":"audio/actual/s1-guide-10bis_jenseigne_beaucoup.mp3","button_pressed":"1","test_part":"test","phrase":"10bis","condition":"guide","subject":"s1","trial_type":"audio-button-response","trial_index":1,"time_elapsed":4824,"internal_node_id":"0.0-1.0-0.0"},{"rt":1812.6900000497699,"stimulus":"audio/actual/s5-imitation-10_jean_saigne_beaucoup-10_cut1norm.mp3","button_pressed":"0","test_part":"test","phrase":"10","condition":"imitation","subject":"s5","trial_type":"audio-button-response","trial_index":3,"time_elapsed":6847,"internal_node_id":"0.0-1.0-0.1"},{"rt":3320.1250000856817,"stimulus":"audio/actual/s1-blind-10_jean_saigne_beaucoup.mp3","button_pressed":"0","test_part":"test","phrase":"10","condition":"blind","subject":"s1","trial_type":"audio-button-response","trial_index":5,"time_elapsed":10714,"internal_node_id":"0.0-1.0-0.2"},{"rt":1640.1549999136478,"stimulus":"audio/actual/s9-guide-10bis_jenseigne_beaucoup.mp3","button_pressed":"1","test_part":"test","phrase":"10bis","condition":"guide","subject":"s9","trial_type":"audio-button-response","trial_index":7,"time_elapsed":12655,"internal_node_id":"0.0-1.0-0.3"},{"rt":2187.374999979511,"stimulus":"audio/actual/s1-blind-10bis_jenseigne_beaucoup.mp3","button_pressed":"1","test_part":"test","phrase":"10bis","condition":"blind","subject":"s1","trial_type":"audio-button-response","trial_index":9,"time_elapsed":15371,"internal_node_id":"0.0-1.0-0.4"},{"rt":2025.7100001908839,"stimulus":"audio/actual/s8-imitation-10_jean_saigne_beaucoup-10_cut1norm.mp3","button_pressed":"0","test_part":"test","phrase":"10","condition":"imitation","subject":"s8","trial_type":"audio-button-response","trial_index":11,"time_elapsed":17919,"internal_node_id":"0.0-1.0-0.5"},{"rt":1712.5049999449402,"stimulus":"audio/actual/s4-guide-10bis_jenseigne_beaucoup.mp3","button_pressed":"1","test_part":"test","phrase":"10bis","condition":"guide","subject":"s4","trial_type":"audio-button-response","trial_index":13,"time_elapsed":20047,"internal_node_id":"0.0-1.0-0.6"},{"rt":2075.304999947548,"stimulus":"audio/actual/s7-blind-10_jean_saigne_beaucoup.mp3","button_pressed":"0","test_part":"test","phrase":"10","condition":"blind","subject":"s7","trial_type":"audio-button-response","trial_index":15,"time_elapsed":22558,"internal_node_id":"0.0-1.0-0.7"},{"rt":1765.26500005275,"stimulus":"audio/actual/s5-guide-10_jean_saigne_beaucoup.mp3","button_pressed":"1","test_part":"test","phrase":"10","condition":"guide","subject":"s5","trial_type":"audio-button-response","trial_index":17,"time_elapsed":24708,"internal_node_id":"0.0-1.0-0.8"},{"rt":1503.8149999454618,"stimulus":"audio/actual/s8-blind-10_jean_saigne_beaucoup.mp3","button_pressed":"1","test_part":"test","phrase":"10","condition":"blind","subject":"s8","trial_type":"audio-button-response","trial_index":19,"time_elapsed":26697,"internal_node_id":"0.0-1.0-0.9"},{"rt":2368.2999999728054,"stimulus":"audio/actual/s1-imitation-10_jean_saigne_beaucoup-11_cut1norm.mp3","button_pressed":"0","test_part":"test","phrase":"10","condition":"imitation","subject":"s1","trial_type":"audio-button-response","trial_index":21,"time_elapsed":29413,"internal_node_id":"0.0-1.0-0.10"},{"rt":5218.85500010103,"stimulus":"audio/actual/s4-imitation-10bis_jenseigne_beaucoup-0_cut1norm.mp3","button_pressed":"2","test_part":"test","phrase":"10bis","condition":"imitation","subject":"s4","trial_type":"audio-button-response","trial_index":23,"time_elapsed":35021,"internal_node_id":"0.0-1.0-0.11"},{"rt":1949.0450001321733,"stimulus":"audio/actual/s4-imitation-10bis_jenseigne_beaucoup-0_cut1norm.mp3","button_pressed":"1","test_part":"test","phrase":"10bis","condition":"imitation","subject":"s4","trial_type":"audio-button-response","trial_index":24,"time_elapsed":36974,"internal_node_id":"0.0-1.0-1.11-0.11"},{"rt":2244.230000069365,"stimulus":"audio/actual/s1-guide-10_jean_saigne_beaucoup.mp3","button_pressed":"0","test_part":"test","phrase":"10","condition":"guide","subject":"s1","trial_type":"audio-button-response","trial_index":26,"time_elapsed":39658,"internal_node_id":"0.0-1.0-0.12"},{"rt":1561.8499999400228,"stimulus":"audio/actual/s9-blind-10_jean_saigne_beaucoup.mp3","button_pressed":"1","test_part":"test","phrase":"10","condition":"blind","subject":"s9","trial_type":"audio-button-response","trial_index":28,"time_elapsed":41635,"internal_node_id":"0.0-1.0-0.13"},{"rt":3321.8100001104176,"stimulus":"audio/actual/s5-lecture-10bis_jenseigne_beaucoup-4_cut1norm.mp3","button_pressed":"2","test_part":"test","phrase":"10bis","condition":"lecture","subject":"s5","trial_type":"audio-button-response","trial_index":30,"time_elapsed":45377,"internal_node_id":"0.0-1.0-0.14"},{"rt":2678.2949999906123,"stimulus":"audio/actual/s5-lecture-10bis_jenseigne_beaucoup-4_cut1norm.mp3","button_pressed":"1","test_part":"test","phrase":"10bis","condition":"lecture","subject":"s5","trial_type":"audio-button-response","trial_index":31,"time_elapsed":48058,"internal_node_id":"0.0-1.0-1.14-0.14"},{"rt":1806.5199998673052,"stimulus":"audio/actual/s8-guide-10_jean_saigne_beaucoup.mp3","button_pressed":"0","test_part":"test","phrase":"10","condition":"guide","subject":"s8","trial_type":"audio-button-response","trial_index":33,"time_elapsed":50090,"internal_node_id":"0.0-1.0-0.15"},{"rt":5723.579999990761,"stimulus":"audio/actual/s3-blind-10_jean_saigne_beaucoup.mp3","button_pressed":"0","test_part":"test","phrase":"10","condition":"blind","subject":"s3","trial_type":"audio-button-response","trial_index":35,"time_elapsed":55948,"internal_node_id":"0.0-1.0-0.16"},{"rt":1702.3950000293553,"stimulus":"audio/actual/s4-lecture-10_jean_saigne_beaucoup-1_cut1norm.mp3","button_pressed":"0","test_part":"test","phrase":"10","condition":"lecture","subject":"s4","trial_type":"audio-button-response","trial_index":37,"time_elapsed":58067,"internal_node_id":"0.0-1.0-0.17"},{"rt":2125.7200001273304,"stimulus":"audio/actual/s5-lecture-10_jean_saigne_beaucoup-5_cut1norm.mp3","button_pressed":"0","test_part":"test","phrase":"10","condition":"lecture","subject":"s5","trial_type":"audio-button-response","trial_index":39,"time_elapsed":60600,"internal_node_id":"0.0-1.0-0.18"},{"rt":1763.1650001276284,"stimulus":"audio/actual/s4-guide-10_jean_saigne_beaucoup.mp3","button_pressed":"1","test_part":"test","phrase":"10","condition":"guide","subject":"s4","trial_type":"audio-button-response","trial_index":41,"time_elapsed":62777,"internal_node_id":"0.0-1.0-0.19"},{"rt":1364.1099999658763,"stimulus":"audio/actual/s2-imitation-10bis_jenseigne_beaucoup-5_cut1norm.mp3","button_pressed":"1","test_part":"test","phrase":"10bis","condition":"imitation","subject":"s2","trial_type":"audio-button-response","trial_index":43,"time_elapsed":64488,"internal_node_id":"0.0-1.0-0.20"},{"rt":1331.9050001446158,"stimulus":"audio/actual/s5-guide-10bis_jenseigne_beaucoup.mp3","button_pressed":"1","test_part":"test","phrase":"10bis","condition":"guide","subject":"s5","trial_type":"audio-button-response","trial_index":45,"time_elapsed":66176,"internal_node_id":"0.0-1.0-0.21"},{"rt":2185.5250000953674,"stimulus":"audio/actual/s2-guide-10_jean_saigne_beaucoup.mp3","button_pressed":"0","test_part":"test","phrase":"10","condition":"guide","subject":"s2","trial_type":"audio-button-response","trial_index":47,"time_elapsed":68689,"internal_node_id":"0.0-1.0-0.22"},{"rt":4073.189999908209,"stimulus":"audio/actual/s1-lecture-10_jean_saigne_beaucoup-2_cut1norm.mp3","button_pressed":"2","test_part":"test","phrase":"10","condition":"lecture","subject":"s1","trial_type":"audio-button-response","trial_index":49,"time_elapsed":73137,"internal_node_id":"0.0-1.0-0.23"},{"rt":4619.74999983795,"stimulus":"audio/actual/s1-lecture-10_jean_saigne_beaucoup-2_cut1norm.mp3","button_pressed":"1","test_part":"test","phrase":"10","condition":"lecture","subject":"s1","trial_type":"audio-button-response","trial_index":50,"time_elapsed":77760,"internal_node_id":"0.0-1.0-1.23-0.23"},{"rt":2440.2700001373887,"stimulus":"audio/actual/s2-lecture-10_jean_saigne_beaucoup-7_cut1norm.mp3","button_pressed":"0","test_part":"test","phrase":"10","condition":"lecture","subject":"s2","trial_type":"audio-button-response","trial_index":52,"time_elapsed":80574,"internal_node_id":"0.0-1.0-0.24"},{"rt":2143.120000138879,"stimulus":"audio/actual/s10-imitation-10_jean_saigne_beaucoup-11_cut1norm.mp3","button_pressed":"0","test_part":"test","phrase":"10","condition":"imitation","subject":"s10","trial_type":"audio-button-response","trial_index":54,"time_elapsed":83087,"internal_node_id":"0.0-1.0-0.25"},{"rt":2189.110000152141,"stimulus":"audio/actual/s8-lecture-10bis_jenseigne_beaucoup-11_cut1norm.mp3","button_pressed":"2","test_part":"test","phrase":"10bis","condition":"lecture","subject":"s8","trial_type":"audio-button-response","trial_index":56,"time_elapsed":85743,"internal_node_id":"0.0-1.0-0.26"},{"rt":6024.534999858588,"stimulus":"audio/actual/s8-lecture-10bis_jenseigne_beaucoup-11_cut1norm.mp3","button_pressed":"1","test_part":"test","phrase":"10bis","condition":"lecture","subject":"s8","trial_type":"audio-button-response","trial_index":57,"time_elapsed":91769,"internal_node_id":"0.0-1.0-1.26-0.26"},{"rt":2828.6350001581013,"stimulus":"audio/actual/s3-imitation-10_jean_saigne_beaucoup-2_cut1norm.mp3","button_pressed":"0","test_part":"test","phrase":"10","condition":"imitation","subject":"s3","trial_type":"audio-button-response","trial_index":59,"time_elapsed":95003,"internal_node_id":"0.0-1.0-0.27"},{"rt":2107.6299999840558,"stimulus":"audio/actual/s7-imitation-10bis_jenseigne_beaucoup-2_cut1norm.mp3","button_pressed":"1","test_part":"test","phrase":"10bis","condition":"imitation","subject":"s7","trial_type":"audio-button-response","trial_index":61,"time_elapsed":97501,"internal_node_id":"0.0-1.0-0.28"},{"rt":2982.19499993138,"stimulus":"audio/actual/s3-guide-10bis_jenseigne_beaucoup.mp3","button_pressed":"1","test_part":"test","phrase":"10bis","condition":"guide","subject":"s3","trial_type":"audio-button-response","trial_index":63,"time_elapsed":100865,"internal_node_id":"0.0-1.0-0.29"},{"rt":3064.144999952987,"stimulus":"audio/actual/s10-blind-10_jean_saigne_beaucoup.mp3","button_pressed":"0","test_part":"test","phrase":"10","condition":"blind","subject":"s10","trial_type":"audio-button-response","trial_index":65,"time_elapsed":104276,"internal_node_id":"0.0-1.0-0.30"},{"rt":1860.564999980852,"stimulus":"audio/actual/s6-lecture-10bis_jenseigne_beaucoup-0_cut1norm.mp3","button_pressed":"0","test_part":"test","phrase":"10bis","condition":"lecture","subject":"s6","trial_type":"audio-button-response","trial_index":67,"time_elapsed":106482,"internal_node_id":"0.0-1.0-0.31"},{"rt":1963.2699999492615,"stimulus":"audio/actual/s7-blind-10bis_jenseigne_beaucoup.mp3","button_pressed":"1","test_part":"test","phrase":"10bis","condition":"blind","subject":"s7","trial_type":"audio-button-response","trial_index":69,"time_elapsed":108888,"internal_node_id":"0.0-1.0-0.32"},{"rt":1655.8850000146776,"stimulus":"audio/actual/s6-guide-10_jean_saigne_beaucoup.mp3","button_pressed":"1","test_part":"test","phrase":"10","condition":"guide","subject":"s6","trial_type":"audio-button-response","trial_index":71,"time_elapsed":110698,"internal_node_id":"0.0-1.0-0.33"},{"rt":1970.6949999090284,"stimulus":"audio/actual/s9-imitation-10_jean_saigne_beaucoup-4_cut1norm.mp3","button_pressed":"0","test_part":"test","phrase":"10","condition":"imitation","subject":"s9","trial_type":"audio-button-response","trial_index":73,"time_elapsed":113082,"internal_node_id":"0.0-1.0-0.34"},{"rt":2460.779999848455,"stimulus":"audio/actual/s3-lecture-10_jean_saigne_beaucoup-2_cut1norm.mp3","button_pressed":"0","test_part":"test","phrase":"10","condition":"lecture","subject":"s3","trial_type":"audio-button-response","trial_index":75,"time_elapsed":115912,"internal_node_id":"0.0-1.0-0.35"},{"rt":1526.300000026822,"stimulus":"audio/actual/s6-imitation-10bis_jenseigne_beaucoup-4_cut1norm.mp3","button_pressed":"1","test_part":"test","phrase":"10bis","condition":"imitation","subject":"s6","trial_type":"audio-button-response","trial_index":77,"time_elapsed":117868,"internal_node_id":"0.0-1.0-0.36"},{"rt":1378.4700001124293,"stimulus":"audio/actual/s8-guide-10bis_jenseigne_beaucoup.mp3","button_pressed":"1","test_part":"test","phrase":"10bis","condition":"guide","subject":"s8","trial_type":"audio-button-response","trial_index":79,"time_elapsed":119560,"internal_node_id":"0.0-1.0-0.37"},{"rt":2425.49500009045,"stimulus":"audio/actual/s10-lecture-10_jean_saigne_beaucoup-10_cut1norm.mp3","button_pressed":"1","test_part":"test","phrase":"10","condition":"lecture","subject":"s10","trial_type":"audio-button-response","trial_index":81,"time_elapsed":122357,"internal_node_id":"0.0-1.0-0.38"},{"rt":3104.8850000370294,"stimulus":"audio/actual/s5-imitation-10bis_jenseigne_beaucoup-11_cut1norm.mp3","button_pressed":"1","test_part":"test","phrase":"10bis","condition":"imitation","subject":"s5","trial_type":"audio-button-response","trial_index":83,"time_elapsed":125807,"internal_node_id":"0.0-1.0-0.39"},{"rt":1755.6050000712276,"stimulus":"audio/actual/s10-guide-10_jean_saigne_beaucoup.mp3","button_pressed":"0","test_part":"test","phrase":"10","condition":"guide","subject":"s10","trial_type":"audio-button-response","trial_index":85,"time_elapsed":127967,"internal_node_id":"0.0-1.0-0.40"},{"rt":1923.9749999251217,"stimulus":"audio/actual/s8-lecture-10_jean_saigne_beaucoup-10_cut1norm.mp3","button_pressed":"0","test_part":"test","phrase":"10","condition":"lecture","subject":"s8","trial_type":"audio-button-response","trial_index":87,"time_elapsed":130306,"internal_node_id":"0.0-1.0-0.41"},{"rt":1949.945000000298,"stimulus":"audio/actual/s7-lecture-10bis_jenseigne_beaucoup-9_cut1norm.mp3","button_pressed":"1","test_part":"test","phrase":"10bis","condition":"lecture","subject":"s7","trial_type":"audio-button-response","trial_index":89,"time_elapsed":132672,"internal_node_id":"0.0-1.0-0.42"},{"rt":2449.724999954924,"stimulus":"audio/actual/s1-imitation-10bis_jenseigne_beaucoup-10_cut1norm.mp3","button_pressed":"1","test_part":"test","phrase":"10bis","condition":"imitation","subject":"s1","trial_type":"audio-button-response","trial_index":91,"time_elapsed":135661,"internal_node_id":"0.0-1.0-0.43"},{"rt":4436.354999896139,"stimulus":"audio/actual/s2-lecture-10bis_jenseigne_beaucoup-6_cut1norm.mp3","button_pressed":"0","test_part":"test","phrase":"10bis","condition":"lecture","subject":"s2","trial_type":"audio-button-response","trial_index":93,"time_elapsed":140468,"internal_node_id":"0.0-1.0-0.44"},{"rt":2480.4299999959767,"stimulus":"audio/actual/s7-guide-10bis_jenseigne_beaucoup.mp3","button_pressed":"0","test_part":"test","phrase":"10bis","condition":"guide","subject":"s7","trial_type":"audio-button-response","trial_index":95,"time_elapsed":143522,"internal_node_id":"0.0-1.0-0.45"},{"rt":1731.2600000295788,"stimulus":"audio/actual/s10-guide-10bis_jenseigne_beaucoup.mp3","button_pressed":"1","test_part":"test","phrase":"10bis","condition":"guide","subject":"s10","trial_type":"audio-button-response","trial_index":97,"time_elapsed":145413,"internal_node_id":"0.0-1.0-0.46"},{"rt":2440.1099998503923,"stimulus":"audio/actual/s9-lecture-10_jean_saigne_beaucoup-3_cut1norm.mp3","button_pressed":"0","test_part":"test","phrase":"10","condition":"lecture","subject":"s9","trial_type":"audio-button-response","trial_index":99,"time_elapsed":149312,"internal_node_id":"0.0-1.0-0.47"},{"rt":2632.054999936372,"stimulus":"audio/actual/s10-imitation-10bis_jenseigne_beaucoup-10_cut1norm.mp3","button_pressed":"1","test_part":"test","phrase":"10bis","condition":"imitation","subject":"s10","trial_type":"audio-button-response","trial_index":101,"time_elapsed":152804,"internal_node_id":"0.0-1.0-0.48"},{"rt":2502.6750001125038,"stimulus":"audio/actual/s6-blind-10bis_jenseigne_beaucoup.mp3","button_pressed":"0","test_part":"test","phrase":"10bis","condition":"blind","subject":"s6","trial_type":"audio-button-response","trial_index":103,"time_elapsed":155654,"internal_node_id":"0.0-1.0-0.49"},{"rt":2223.2800000347197,"stimulus":"audio/actual/s10-blind-10bis_jenseigne_beaucoup.mp3","button_pressed":"1","test_part":"test","phrase":"10bis","condition":"blind","subject":"s10","trial_type":"audio-button-response","trial_index":105,"time_elapsed":158304,"internal_node_id":"0.0-1.0-0.50"},{"rt":2347.1650001592934,"stimulus":"audio/actual/s3-lecture-10bis_jenseigne_beaucoup-3_cut1norm.mp3","button_pressed":"1","test_part":"test","phrase":"10bis","condition":"lecture","subject":"s3","trial_type":"audio-button-response","trial_index":107,"time_elapsed":161189,"internal_node_id":"0.0-1.0-0.51"},{"rt":3997.9199999943376,"stimulus":"audio/actual/s6-guide-10bis_jenseigne_beaucoup.mp3","button_pressed":"0","test_part":"test","phrase":"10bis","condition":"guide","subject":"s6","trial_type":"audio-button-response","trial_index":109,"time_elapsed":165579,"internal_node_id":"0.0-1.0-0.52"},{"rt":2363.33499988541,"stimulus":"audio/actual/s9-blind-10bis_jenseigne_beaucoup.mp3","button_pressed":"1","test_part":"test","phrase":"10bis","condition":"blind","subject":"s9","trial_type":"audio-button-response","trial_index":111,"time_elapsed":168334,"internal_node_id":"0.0-1.0-0.53"},{"rt":3198.4649999067187,"stimulus":"audio/actual/s4-lecture-10bis_jenseigne_beaucoup-0_cut1norm.mp3","button_pressed":"1","test_part":"test","phrase":"10bis","condition":"lecture","subject":"s4","trial_type":"audio-button-response","trial_index":113,"time_elapsed":171899,"internal_node_id":"0.0-1.0-0.54"},{"rt":2461.5149998571724,"stimulus":"audio/actual/s2-guide-10bis_jenseigne_beaucoup.mp3","button_pressed":"1","test_part":"test","phrase":"10bis","condition":"guide","subject":"s2","trial_type":"audio-button-response","trial_index":115,"time_elapsed":175032,"internal_node_id":"0.0-1.0-0.55"},{"rt":2032.6899997889996,"stimulus":"audio/actual/s9-lecture-10bis_jenseigne_beaucoup-2_cut1norm.mp3","button_pressed":"1","test_part":"test","phrase":"10bis","condition":"lecture","subject":"s9","trial_type":"audio-button-response","trial_index":117,"time_elapsed":177353,"internal_node_id":"0.0-1.0-0.56"},{"rt":4573.755000019446,"stimulus":"audio/actual/s2-blind-10_jean_saigne_beaucoup.mp3","button_pressed":"0","test_part":"test","phrase":"10","condition":"blind","subject":"s2","trial_type":"audio-button-response","trial_index":119,"time_elapsed":182374,"internal_node_id":"0.0-1.0-0.57"},{"rt":3201.564999995753,"stimulus":"audio/actual/s6-blind-10_jean_saigne_beaucoup.mp3","button_pressed":"2","test_part":"test","phrase":"10","condition":"blind","subject":"s6","trial_type":"audio-button-response","trial_index":121,"time_elapsed":185743,"internal_node_id":"0.0-1.0-0.58"},{"rt":3464.1350000165403,"stimulus":"audio/actual/s6-blind-10_jean_saigne_beaucoup.mp3","button_pressed":"0","test_part":"test","phrase":"10","condition":"blind","subject":"s6","trial_type":"audio-button-response","trial_index":122,"time_elapsed":189210,"internal_node_id":"0.0-1.0-1.58-0.58"},{"rt":2419.725000159815,"stimulus":"audio/actual/s2-imitation-10_jean_saigne_beaucoup-4_cut1norm.mp3","button_pressed":"0","test_part":"test","phrase":"10","condition":"imitation","subject":"s2","trial_type":"audio-button-response","trial_index":124,"time_elapsed":191809,"internal_node_id":"0.0-1.0-0.59"},{"rt":1973.6149997916073,"stimulus":"audio/actual/s5-blind-10_jean_saigne_beaucoup.mp3","button_pressed":"1","test_part":"test","phrase":"10","condition":"blind","subject":"s5","trial_type":"audio-button-response","trial_index":126,"time_elapsed":194173,"internal_node_id":"0.0-1.0-0.60"},{"rt":1613.9899999834597,"stimulus":"audio/actual/s2-blind-10bis_jenseigne_beaucoup.mp3","button_pressed":"1","test_part":"test","phrase":"10bis","condition":"blind","subject":"s2","trial_type":"audio-button-response","trial_index":128,"time_elapsed":196173,"internal_node_id":"0.0-1.0-0.61"},{"rt":3260.7350000180304,"stimulus":"audio/actual/s4-blind-10bis_jenseigne_beaucoup.mp3","button_pressed":"1","test_part":"test","phrase":"10bis","condition":"blind","subject":"s4","trial_type":"audio-button-response","trial_index":130,"time_elapsed":199820,"internal_node_id":"0.0-1.0-0.62"},{"rt":1673.990000039339,"stimulus":"audio/actual/s3-blind-10bis_jenseigne_beaucoup.mp3","button_pressed":"1","test_part":"test","phrase":"10bis","condition":"blind","subject":"s3","trial_type":"audio-button-response","trial_index":132,"time_elapsed":203824,"internal_node_id":"0.0-1.0-0.63"},{"rt":2017.2649999149144,"stimulus":"audio/actual/s8-blind-10bis_jenseigne_beaucoup.mp3","button_pressed":"0","test_part":"test","phrase":"10bis","condition":"blind","subject":"s8","trial_type":"audio-button-response","trial_index":134,"time_elapsed":206166,"internal_node_id":"0.0-1.0-0.64"},{"rt":3121.969999978319,"stimulus":"audio/actual/s6-imitation-10_jean_saigne_beaucoup-5_cut1norm.mp3","button_pressed":"0","test_part":"test","phrase":"10","condition":"imitation","subject":"s6","trial_type":"audio-button-response","trial_index":136,"time_elapsed":209611,"internal_node_id":"0.0-1.0-0.65"},{"rt":4429.014999885112,"stimulus":"audio/actual/s7-lecture-10_jean_saigne_beaucoup-8_cut1norm.mp3","button_pressed":"2","test_part":"test","phrase":"10","condition":"lecture","subject":"s7","trial_type":"audio-button-response","trial_index":138,"time_elapsed":214499,"internal_node_id":"0.0-1.0-0.66"},{"rt":2720.5450001638383,"stimulus":"audio/actual/s7-lecture-10_jean_saigne_beaucoup-8_cut1norm.mp3","button_pressed":"0","test_part":"test","phrase":"10","condition":"lecture","subject":"s7","trial_type":"audio-button-response","trial_index":139,"time_elapsed":217223,"internal_node_id":"0.0-1.0-1.66-0.66"},{"rt":2835.2900000754744,"stimulus":"audio/actual/s4-imitation-10_jean_saigne_beaucoup-1_cut1norm.mp3","button_pressed":"0","test_part":"test","phrase":"10","condition":"imitation","subject":"s4","trial_type":"audio-button-response","trial_index":141,"time_elapsed":220595,"internal_node_id":"0.0-1.0-0.67"},{"rt":2595.445000100881,"stimulus":"audio/actual/s6-lecture-10_jean_saigne_beaucoup-1_cut1norm.mp3","button_pressed":"0","test_part":"test","phrase":"10","condition":"lecture","subject":"s6","trial_type":"audio-button-response","trial_index":143,"time_elapsed":223565,"internal_node_id":"0.0-1.0-0.68"},{"rt":1610.6350000482053,"stimulus":"audio/actual/s5-blind-10bis_jenseigne_beaucoup.mp3","button_pressed":"0","test_part":"test","phrase":"10bis","condition":"blind","subject":"s5","trial_type":"audio-button-response","trial_index":145,"time_elapsed":225581,"internal_node_id":"0.0-1.0-0.69"},{"rt":2744.450000114739,"stimulus":"audio/actual/s8-imitation-10bis_jenseigne_beaucoup-11_cut1norm.mp3","button_pressed":"1","test_part":"test","phrase":"10bis","condition":"imitation","subject":"s8","trial_type":"audio-button-response","trial_index":147,"time_elapsed":228668,"internal_node_id":"0.0-1.0-0.70"},{"rt":5536.910000024363,"stimulus":"audio/actual/s9-imitation-10bis_jenseigne_beaucoup-5_cut1norm.mp3","button_pressed":"2","test_part":"test","phrase":"10bis","condition":"imitation","subject":"s9","trial_type":"audio-button-response","trial_index":149,"time_elapsed":234577,"internal_node_id":"0.0-1.0-0.71"},{"rt":5101.454999996349,"stimulus":"audio/actual/s9-imitation-10bis_jenseigne_beaucoup-5_cut1norm.mp3","button_pressed":"1","test_part":"test","phrase":"10bis","condition":"imitation","subject":"s9","trial_type":"audio-button-response","trial_index":150,"time_elapsed":239682,"internal_node_id":"0.0-1.0-1.71-0.71"},{"rt":3330.1200000569224,"stimulus":"audio/actual/s3-guide-10_jean_saigne_beaucoup.mp3","button_pressed":"1","test_part":"test","phrase":"10","condition":"guide","subject":"s3","trial_type":"audio-button-response","trial_index":152,"time_elapsed":243420,"internal_node_id":"0.0-1.0-0.72"},{"rt":2322.565000038594,"stimulus":"audio/actual/s7-imitation-10_jean_saigne_beaucoup-3_cut1norm.mp3","button_pressed":"0","test_part":"test","phrase":"10","condition":"imitation","subject":"s7","trial_type":"audio-button-response","trial_index":154,"time_elapsed":245913,"internal_node_id":"0.0-1.0-0.73"},{"rt":2367.9400000255555,"stimulus":"audio/actual/s9-guide-10_jean_saigne_beaucoup.mp3","button_pressed":"0","test_part":"test","phrase":"10","condition":"guide","subject":"s9","trial_type":"audio-button-response","trial_index":156,"time_elapsed":248478,"internal_node_id":"0.0-1.0-0.74"},{"rt":2163.2050001062453,"stimulus":"audio/actual/s10-lecture-10bis_jenseigne_beaucoup-11_cut1norm.mp3","button_pressed":"1","test_part":"test","phrase":"10bis","condition":"lecture","subject":"s10","trial_type":"audio-button-response","trial_index":158,"time_elapsed":250793,"internal_node_id":"0.0-1.0-0.75"},{"rt":1584.400000050664,"stimulus":"audio/actual/s7-guide-10_jean_saigne_beaucoup.mp3","button_pressed":"1","test_part":"test","phrase":"10","condition":"guide","subject":"s7","trial_type":"audio-button-response","trial_index":160,"time_elapsed":252795,"internal_node_id":"0.0-1.0-0.76"},{"rt":2982.4550000485033,"stimulus":"audio/actual/s1-lecture-10bis_jenseigne_beaucoup-3_cut1norm.mp3","button_pressed":"1","test_part":"test","phrase":"10bis","condition":"lecture","subject":"s1","trial_type":"audio-button-response","trial_index":162,"time_elapsed":255851,"internal_node_id":"0.0-1.0-0.77"},{"rt":2130.654999986291,"stimulus":"audio/actual/s3-imitation-10bis_jenseigne_beaucoup-3_cut1norm.mp3","button_pressed":"1","test_part":"test","phrase":"10bis","condition":"imitation","subject":"s3","trial_type":"audio-button-response","trial_index":164,"time_elapsed":258980,"internal_node_id":"0.0-1.0-0.78"},{"rt":2684.4299999065697,"stimulus":"audio/actual/s4-blind-10_jean_saigne_beaucoup.mp3","button_pressed":"0","test_part":"test","phrase":"10","condition":"blind","subject":"s4","trial_type":"audio-button-response","trial_index":166,"time_elapsed":261814,"internal_node_id":"0.0-1.0-0.79"}]