[{"rt":4993.265000000974,"stimulus":"audio/actual/s3-imitation-10bis_jenseigne_beaucoup-3_cut1norm.mp3","button_pressed":"1","test_part":"test","phrase":"10bis","condition":"imitation","subject":"s3","trial_type":"audio-button-response","trial_index":1,"time_elapsed":8572,"internal_node_id":"0.0-1.0-0.0"},{"rt":5534.38499999902,"stimulus":"audio/actual/s4-guide-10bis_jenseigne_beaucoup.mp3","button_pressed":"0","test_part":"test","phrase":"10bis","condition":"guide","subject":"s4","trial_type":"audio-button-response","trial_index":3,"time_elapsed":15536,"internal_node_id":"0.0-1.0-0.1"},{"rt":2771.5100000023085,"stimulus":"audio/actual/s7-imitation-10bis_jenseigne_beaucoup-2_cut1norm.mp3","button_pressed":"0","test_part":"test","phrase":"10bis","condition":"imitation","subject":"s7","trial_type":"audio-button-response","trial_index":5,"time_elapsed":19466,"internal_node_id":"0.0-1.0-0.2"},{"rt":3678.2899999998335,"stimulus":"audio/actual/s3-lecture-10bis_jenseigne_beaucoup-3_cut1norm.mp3","button_pressed":"1","test_part":"test","phrase":"10bis","condition":"lecture","subject":"s3","trial_type":"audio-button-response","trial_index":7,"time_elapsed":24199,"internal_node_id":"0.0-1.0-0.3"},{"rt":3127.234999999928,"stimulus":"audio/actual/s1-blind-10_jean_saigne_beaucoup.mp3","button_pressed":"1","test_part":"test","phrase":"10","condition":"blind","subject":"s1","trial_type":"audio-button-response","trial_index":9,"time_elapsed":28743,"internal_node_id":"0.0-1.0-0.4"},{"rt":2598.534999997355,"stimulus":"audio/actual/s5-blind-10_jean_saigne_beaucoup.mp3","button_pressed":"0","test_part":"test","phrase":"10","condition":"blind","subject":"s5","trial_type":"audio-button-response","trial_index":11,"time_elapsed":32344,"internal_node_id":"0.0-1.0-0.5"},{"rt":4533.064999999624,"stimulus":"audio/actual/s2-blind-10_jean_saigne_beaucoup.mp3","button_pressed":"0","test_part":"test","phrase":"10","condition":"blind","subject":"s2","trial_type":"audio-button-response","trial_index":13,"time_elapsed":38385,"internal_node_id":"0.0-1.0-0.6"},{"rt":2801.1899999983143,"stimulus":"audio/actual/s4-imitation-10_jean_saigne_beaucoup-1_cut1norm.mp3","button_pressed":"0","test_part":"test","phrase":"10","condition":"imitation","subject":"s4","trial_type":"audio-button-response","trial_index":15,"time_elapsed":42030,"internal_node_id":"0.0-1.0-0.7"},{"rt":3588.1550000012794,"stimulus":"audio/actual/s6-imitation-10bis_jenseigne_beaucoup-4_cut1norm.mp3","button_pressed":"1","test_part":"test","phrase":"10bis","condition":"imitation","subject":"s6","trial_type":"audio-button-response","trial_index":17,"time_elapsed":46586,"internal_node_id":"0.0-1.0-0.8"},{"rt":5591.159999999945,"stimulus":"audio/actual/s9-guide-10bis_jenseigne_beaucoup.mp3","button_pressed":"2","test_part":"test","phrase":"10bis","condition":"guide","subject":"s9","trial_type":"audio-button-response","trial_index":19,"time_elapsed":53000,"internal_node_id":"0.0-1.0-0.9"},{"rt":3566.1250000011933,"stimulus":"audio/actual/s9-guide-10bis_jenseigne_beaucoup.mp3","button_pressed":"0","test_part":"test","phrase":"10bis","condition":"guide","subject":"s9","trial_type":"audio-button-response","trial_index":20,"time_elapsed":56567,"internal_node_id":"0.0-1.0-1.9-0.9"},{"rt":1978.899999998248,"stimulus":"audio/actual/s7-guide-10_jean_saigne_beaucoup.mp3","button_pressed":"0","test_part":"test","phrase":"10","condition":"guide","subject":"s7","trial_type":"audio-button-response","trial_index":22,"time_elapsed":59513,"internal_node_id":"0.0-1.0-0.10"},{"rt":2598.8450000004377,"stimulus":"audio/actual/s5-blind-10bis_jenseigne_beaucoup.mp3","button_pressed":"1","test_part":"test","phrase":"10bis","condition":"blind","subject":"s5","trial_type":"audio-button-response","trial_index":24,"time_elapsed":62922,"internal_node_id":"0.0-1.0-0.11"},{"rt":1799.589999998716,"stimulus":"audio/actual/s9-imitation-10bis_jenseigne_beaucoup-5_cut1norm.mp3","button_pressed":"1","test_part":"test","phrase":"10bis","condition":"imitation","subject":"s9","trial_type":"audio-button-response","trial_index":26,"time_elapsed":65397,"internal_node_id":"0.0-1.0-0.12"},{"rt":4173.654999998689,"stimulus":"audio/actual/s1-imitation-10bis_jenseigne_beaucoup-10_cut1norm.mp3","button_pressed":"1","test_part":"test","phrase":"10bis","condition":"imitation","subject":"s1","trial_type":"audio-button-response","trial_index":28,"time_elapsed":70280,"internal_node_id":"0.0-1.0-0.13"},{"rt":2122.2749999978987,"stimulus":"audio/actual/s8-guide-10_jean_saigne_beaucoup.mp3","button_pressed":"0","test_part":"test","phrase":"10","condition":"guide","subject":"s8","trial_type":"audio-button-response","trial_index":30,"time_elapsed":73314,"internal_node_id":"0.0-1.0-0.14"},{"rt":1676.644999999553,"stimulus":"audio/actual/s6-imitation-10_jean_saigne_beaucoup-5_cut1norm.mp3","button_pressed":"0","test_part":"test","phrase":"10","condition":"imitation","subject":"s6","trial_type":"audio-button-response","trial_index":32,"time_elapsed":75635,"internal_node_id":"0.0-1.0-0.15"},{"rt":1676.4700000021548,"stimulus":"audio/actual/s10-lecture-10bis_jenseigne_beaucoup-11_cut1norm.mp3","button_pressed":"1","test_part":"test","phrase":"10bis","condition":"lecture","subject":"s10","trial_type":"audio-button-response","trial_index":34,"time_elapsed":77964,"internal_node_id":"0.0-1.0-0.16"},{"rt":1326.854999999341,"stimulus":"audio/actual/s1-imitation-10_jean_saigne_beaucoup-11_cut1norm.mp3","button_pressed":"0","test_part":"test","phrase":"10","condition":"imitation","subject":"s1","trial_type":"audio-button-response","trial_index":36,"time_elapsed":79910,"internal_node_id":"0.0-1.0-0.17"},{"rt":1203.8749999992433,"stimulus":"audio/actual/s7-blind-10bis_jenseigne_beaucoup.mp3","button_pressed":"1","test_part":"test","phrase":"10bis","condition":"blind","subject":"s7","trial_type":"audio-button-response","trial_index":38,"time_elapsed":81778,"internal_node_id":"0.0-1.0-0.18"},{"rt":2370.9649999982503,"stimulus":"audio/actual/s2-guide-10bis_jenseigne_beaucoup.mp3","button_pressed":"1","test_part":"test","phrase":"10bis","condition":"guide","subject":"s2","trial_type":"audio-button-response","trial_index":40,"time_elapsed":86582,"internal_node_id":"0.0-1.0-0.19"},{"rt":1642.149999999674,"stimulus":"audio/actual/s9-guide-10_jean_saigne_beaucoup.mp3","button_pressed":"0","test_part":"test","phrase":"10","condition":"guide","subject":"s9","trial_type":"audio-button-response","trial_index":42,"time_elapsed":88899,"internal_node_id":"0.0-1.0-0.20"},{"rt":1518.5899999996764,"stimulus":"audio/actual/s2-lecture-10bis_jenseigne_beaucoup-6_cut1norm.mp3","button_pressed":"1","test_part":"test","phrase":"10bis","condition":"lecture","subject":"s2","trial_type":"audio-button-response","trial_index":44,"time_elapsed":90992,"internal_node_id":"0.0-1.0-0.21"},{"rt":1225.8550000005926,"stimulus":"audio/actual/s1-lecture-10bis_jenseigne_beaucoup-3_cut1norm.mp3","button_pressed":"1","test_part":"test","phrase":"10bis","condition":"lecture","subject":"s1","trial_type":"audio-button-response","trial_index":46,"time_elapsed":92803,"internal_node_id":"0.0-1.0-0.22"},{"rt":1068.9650000022084,"stimulus":"audio/actual/s5-guide-10bis_jenseigne_beaucoup.mp3","button_pressed":"1","test_part":"test","phrase":"10bis","condition":"guide","subject":"s5","trial_type":"audio-button-response","trial_index":48,"time_elapsed":94322,"internal_node_id":"0.0-1.0-0.23"},{"rt":1709.7350000003644,"stimulus":"audio/actual/s4-lecture-10bis_jenseigne_beaucoup-0_cut1norm.mp3","button_pressed":"1","test_part":"test","phrase":"10bis","condition":"lecture","subject":"s4","trial_type":"audio-button-response","trial_index":50,"time_elapsed":96505,"internal_node_id":"0.0-1.0-0.24"},{"rt":1226.6149999995832,"stimulus":"audio/actual/s10-imitation-10bis_jenseigne_beaucoup-10_cut1norm.mp3","button_pressed":"1","test_part":"test","phrase":"10bis","condition":"imitation","subject":"s10","trial_type":"audio-button-response","trial_index":52,"time_elapsed":98193,"internal_node_id":"0.0-1.0-0.25"},{"rt":1777.28500000012,"stimulus":"audio/actual/s4-lecture-10_jean_saigne_beaucoup-1_cut1norm.mp3","button_pressed":"0","test_part":"test","phrase":"10","condition":"lecture","subject":"s4","trial_type":"audio-button-response","trial_index":54,"time_elapsed":100442,"internal_node_id":"0.0-1.0-0.26"},{"rt":1079.3749999975262,"stimulus":"audio/actual/s7-guide-10bis_jenseigne_beaucoup.mp3","button_pressed":"1","test_part":"test","phrase":"10bis","condition":"guide","subject":"s7","trial_type":"audio-button-response","trial_index":56,"time_elapsed":102220,"internal_node_id":"0.0-1.0-0.27"},{"rt":1316.3950000016484,"stimulus":"audio/actual/s8-imitation-10bis_jenseigne_beaucoup-11_cut1norm.mp3","button_pressed":"1","test_part":"test","phrase":"10bis","condition":"imitation","subject":"s8","trial_type":"audio-button-response","trial_index":58,"time_elapsed":104200,"internal_node_id":"0.0-1.0-0.28"},{"rt":1581.0750000018743,"stimulus":"audio/actual/s2-lecture-10_jean_saigne_beaucoup-7_cut1norm.mp3","button_pressed":"0","test_part":"test","phrase":"10","condition":"lecture","subject":"s2","trial_type":"audio-button-response","trial_index":60,"time_elapsed":106445,"internal_node_id":"0.0-1.0-0.29"},{"rt":2013.7050000012096,"stimulus":"audio/actual/s6-blind-10bis_jenseigne_beaucoup.mp3","button_pressed":"0","test_part":"test","phrase":"10bis","condition":"blind","subject":"s6","trial_type":"audio-button-response","trial_index":62,"time_elapsed":109049,"internal_node_id":"0.0-1.0-0.30"},{"rt":1282.1899999980815,"stimulus":"audio/actual/s7-lecture-10_jean_saigne_beaucoup-8_cut1norm.mp3","button_pressed":"0","test_part":"test","phrase":"10","condition":"lecture","subject":"s7","trial_type":"audio-button-response","trial_index":64,"time_elapsed":110961,"internal_node_id":"0.0-1.0-0.31"},{"rt":2148.495000001276,"stimulus":"audio/actual/s1-guide-10_jean_saigne_beaucoup.mp3","button_pressed":"1","test_part":"test","phrase":"10","condition":"guide","subject":"s1","trial_type":"audio-button-response","trial_index":66,"time_elapsed":113729,"internal_node_id":"0.0-1.0-0.32"},{"rt":1304.6250000006694,"stimulus":"audio/actual/s6-guide-10_jean_saigne_beaucoup.mp3","button_pressed":"1","test_part":"test","phrase":"10","condition":"guide","subject":"s6","trial_type":"audio-button-response","trial_index":68,"time_elapsed":115641,"internal_node_id":"0.0-1.0-0.33"},{"rt":1294.129999998404,"stimulus":"audio/actual/s8-blind-10_jean_saigne_beaucoup.mp3","button_pressed":"1","test_part":"test","phrase":"10","condition":"blind","subject":"s8","trial_type":"audio-button-response","trial_index":70,"time_elapsed":117521,"internal_node_id":"0.0-1.0-0.34"},{"rt":2397.049999999581,"stimulus":"audio/actual/s3-guide-10_jean_saigne_beaucoup.mp3","button_pressed":"1","test_part":"test","phrase":"10","condition":"guide","subject":"s3","trial_type":"audio-button-response","trial_index":72,"time_elapsed":120458,"internal_node_id":"0.0-1.0-0.35"},{"rt":1338.5099999977683,"stimulus":"audio/actual/s8-lecture-10_jean_saigne_beaucoup-10_cut1norm.mp3","button_pressed":"0","test_part":"test","phrase":"10","condition":"lecture","subject":"s8","trial_type":"audio-button-response","trial_index":74,"time_elapsed":122369,"internal_node_id":"0.0-1.0-0.36"},{"rt":2520.3199999996286,"stimulus":"audio/actual/s6-lecture-10_jean_saigne_beaucoup-1_cut1norm.mp3","button_pressed":"0","test_part":"test","phrase":"10","condition":"lecture","subject":"s6","trial_type":"audio-button-response","trial_index":76,"time_elapsed":125464,"internal_node_id":"0.0-1.0-0.37"},{"rt":22804.8200000012,"stimulus":"audio/actual/s3-blind-10bis_jenseigne_beaucoup.mp3","button_pressed":"2","test_part":"test","phrase":"10bis","condition":"blind","subject":"s3","trial_type":"audio-button-response","trial_index":78,"time_elapsed":149056,"internal_node_id":"0.0-1.0-0.38"},{"rt":1631.6999999980908,"stimulus":"audio/actual/s3-blind-10bis_jenseigne_beaucoup.mp3","button_pressed":"1","test_part":"test","phrase":"10bis","condition":"blind","subject":"s3","trial_type":"audio-button-response","trial_index":79,"time_elapsed":150822,"internal_node_id":"0.0-1.0-1.38-0.38"},{"rt":1159.5850000012433,"stimulus":"audio/actual/s8-blind-10bis_jenseigne_beaucoup.mp3","button_pressed":"1","test_part":"test","phrase":"10bis","condition":"blind","subject":"s8","trial_type":"audio-button-response","trial_index":81,"time_elapsed":152543,"internal_node_id":"0.0-1.0-0.39"},{"rt":1034.0949999990698,"stimulus":"audio/actual/s4-guide-10_jean_saigne_beaucoup.mp3","button_pressed":"0","test_part":"test","phrase":"10","condition":"guide","subject":"s4","trial_type":"audio-button-response","trial_index":83,"time_elapsed":154207,"internal_node_id":"0.0-1.0-0.40"},{"rt":1777.330000000802,"stimulus":"audio/actual/s8-lecture-10bis_jenseigne_beaucoup-11_cut1norm.mp3","button_pressed":"1","test_part":"test","phrase":"10bis","condition":"lecture","subject":"s8","trial_type":"audio-button-response","trial_index":85,"time_elapsed":156525,"internal_node_id":"0.0-1.0-0.41"},{"rt":2024.1150000001653,"stimulus":"audio/actual/s4-blind-10bis_jenseigne_beaucoup.mp3","button_pressed":"1","test_part":"test","phrase":"10bis","condition":"blind","subject":"s4","trial_type":"audio-button-response","trial_index":87,"time_elapsed":159304,"internal_node_id":"0.0-1.0-0.42"},{"rt":2272.2950000024866,"stimulus":"audio/actual/s1-lecture-10_jean_saigne_beaucoup-2_cut1norm.mp3","button_pressed":"1","test_part":"test","phrase":"10","condition":"lecture","subject":"s1","trial_type":"audio-button-response","trial_index":89,"time_elapsed":162094,"internal_node_id":"0.0-1.0-0.43"},{"rt":1440.2499999996508,"stimulus":"audio/actual/s6-lecture-10bis_jenseigne_beaucoup-0_cut1norm.mp3","button_pressed":"1","test_part":"test","phrase":"10bis","condition":"lecture","subject":"s6","trial_type":"audio-button-response","trial_index":91,"time_elapsed":164142,"internal_node_id":"0.0-1.0-0.44"},{"rt":1383.109999998851,"stimulus":"audio/actual/s5-lecture-10_jean_saigne_beaucoup-5_cut1norm.mp3","button_pressed":"0","test_part":"test","phrase":"10","condition":"lecture","subject":"s5","trial_type":"audio-button-response","trial_index":93,"time_elapsed":166111,"internal_node_id":"0.0-1.0-0.45"},{"rt":4787.524999999732,"stimulus":"audio/actual/s10-guide-10_jean_saigne_beaucoup.mp3","button_pressed":"2","test_part":"test","phrase":"10","condition":"guide","subject":"s10","trial_type":"audio-button-response","trial_index":95,"time_elapsed":171461,"internal_node_id":"0.0-1.0-0.46"},{"rt":1815.3400000010151,"stimulus":"audio/actual/s10-guide-10_jean_saigne_beaucoup.mp3","button_pressed":"1","test_part":"test","phrase":"10","condition":"guide","subject":"s10","trial_type":"audio-button-response","trial_index":96,"time_elapsed":173277,"internal_node_id":"0.0-1.0-1.46-0.46"},{"rt":2294.494999998278,"stimulus":"audio/actual/s1-guide-10bis_jenseigne_beaucoup.mp3","button_pressed":"1","test_part":"test","phrase":"10bis","condition":"guide","subject":"s1","trial_type":"audio-button-response","trial_index":98,"time_elapsed":176168,"internal_node_id":"0.0-1.0-0.47"},{"rt":1598.00499999983,"stimulus":"audio/actual/s10-imitation-10_jean_saigne_beaucoup-11_cut1norm.mp3","button_pressed":"0","test_part":"test","phrase":"10","condition":"imitation","subject":"s10","trial_type":"audio-button-response","trial_index":100,"time_elapsed":178351,"internal_node_id":"0.0-1.0-0.48"},{"rt":1835.3400000014517,"stimulus":"audio/actual/s2-blind-10bis_jenseigne_beaucoup.mp3","button_pressed":"1","test_part":"test","phrase":"10bis","condition":"blind","subject":"s2","trial_type":"audio-button-response","trial_index":102,"time_elapsed":180839,"internal_node_id":"0.0-1.0-0.49"},{"rt":2073.4150000025693,"stimulus":"audio/actual/s10-blind-10bis_jenseigne_beaucoup.mp3","button_pressed":"1","test_part":"test","phrase":"10bis","condition":"blind","subject":"s10","trial_type":"audio-button-response","trial_index":104,"time_elapsed":183256,"internal_node_id":"0.0-1.0-0.50"},{"rt":2272.710000001098,"stimulus":"audio/actual/s4-blind-10_jean_saigne_beaucoup.mp3","button_pressed":"1","test_part":"test","phrase":"10","condition":"blind","subject":"s4","trial_type":"audio-button-response","trial_index":106,"time_elapsed":186080,"internal_node_id":"0.0-1.0-0.51"},{"rt":1507.2299999992538,"stimulus":"audio/actual/s7-lecture-10bis_jenseigne_beaucoup-9_cut1norm.mp3","button_pressed":"1","test_part":"test","phrase":"10bis","condition":"lecture","subject":"s7","trial_type":"audio-button-response","trial_index":108,"time_elapsed":188173,"internal_node_id":"0.0-1.0-0.52"},{"rt":4229.8699999992095,"stimulus":"audio/actual/s9-blind-10_jean_saigne_beaucoup.mp3","button_pressed":"2","test_part":"test","phrase":"10","condition":"blind","subject":"s9","trial_type":"audio-button-response","trial_index":110,"time_elapsed":192988,"internal_node_id":"0.0-1.0-0.53"},{"rt":2136.740000001737,"stimulus":"audio/actual/s9-blind-10_jean_saigne_beaucoup.mp3","button_pressed":"0","test_part":"test","phrase":"10","condition":"blind","subject":"s9","trial_type":"audio-button-response","trial_index":111,"time_elapsed":195126,"internal_node_id":"0.0-1.0-1.53-0.53"},{"rt":1653.4600000013597,"stimulus":"audio/actual/s5-guide-10_jean_saigne_beaucoup.mp3","button_pressed":"0","test_part":"test","phrase":"10","condition":"guide","subject":"s5","trial_type":"audio-button-response","trial_index":113,"time_elapsed":197409,"internal_node_id":"0.0-1.0-0.54"},{"rt":3611.540000001696,"stimulus":"audio/actual/s3-blind-10_jean_saigne_beaucoup.mp3","button_pressed":"0","test_part":"test","phrase":"10","condition":"blind","subject":"s3","trial_type":"audio-button-response","trial_index":115,"time_elapsed":201617,"internal_node_id":"0.0-1.0-0.55"},{"rt":4961.134999997739,"stimulus":"audio/actual/s5-lecture-10bis_jenseigne_beaucoup-4_cut1norm.mp3","button_pressed":"1","test_part":"test","phrase":"10bis","condition":"lecture","subject":"s5","trial_type":"audio-button-response","trial_index":117,"time_elapsed":207164,"internal_node_id":"0.0-1.0-0.56"},{"rt":1855.8300000004238,"stimulus":"audio/actual/s8-imitation-10_jean_saigne_beaucoup-10_cut1norm.mp3","button_pressed":"0","test_part":"test","phrase":"10","condition":"imitation","subject":"s8","trial_type":"audio-button-response","trial_index":119,"time_elapsed":210494,"internal_node_id":"0.0-1.0-0.57"},{"rt":2587.149999999383,"stimulus":"audio/actual/s3-guide-10bis_jenseigne_beaucoup.mp3","button_pressed":"0","test_part":"test","phrase":"10bis","condition":"guide","subject":"s3","trial_type":"audio-button-response","trial_index":121,"time_elapsed":213700,"internal_node_id":"0.0-1.0-0.58"},{"rt":1462.294999997539,"stimulus":"audio/actual/s5-imitation-10_jean_saigne_beaucoup-10_cut1norm.mp3","button_pressed":"0","test_part":"test","phrase":"10","condition":"imitation","subject":"s5","trial_type":"audio-button-response","trial_index":123,"time_elapsed":215759,"internal_node_id":"0.0-1.0-0.59"},{"rt":1170.430000001943,"stimulus":"audio/actual/s2-imitation-10bis_jenseigne_beaucoup-5_cut1norm.mp3","button_pressed":"1","test_part":"test","phrase":"10bis","condition":"imitation","subject":"s2","trial_type":"audio-button-response","trial_index":125,"time_elapsed":217492,"internal_node_id":"0.0-1.0-0.60"},{"rt":2036.4149999986694,"stimulus":"audio/actual/s9-blind-10bis_jenseigne_beaucoup.mp3","button_pressed":"2","test_part":"test","phrase":"10bis","condition":"blind","subject":"s9","trial_type":"audio-button-response","trial_index":127,"time_elapsed":220102,"internal_node_id":"0.0-1.0-0.61"},{"rt":1630.8749999989232,"stimulus":"audio/actual/s9-blind-10bis_jenseigne_beaucoup.mp3","button_pressed":"1","test_part":"test","phrase":"10bis","condition":"blind","subject":"s9","trial_type":"audio-button-response","trial_index":128,"time_elapsed":221733,"internal_node_id":"0.0-1.0-1.61-0.61"},{"rt":2384.5750000000407,"stimulus":"audio/actual/s10-blind-10_jean_saigne_beaucoup.mp3","button_pressed":"1","test_part":"test","phrase":"10","condition":"blind","subject":"s10","trial_type":"audio-button-response","trial_index":130,"time_elapsed":224646,"internal_node_id":"0.0-1.0-0.62"},{"rt":1890.2200000011362,"stimulus":"audio/actual/s3-lecture-10_jean_saigne_beaucoup-2_cut1norm.mp3","button_pressed":"0","test_part":"test","phrase":"10","condition":"lecture","subject":"s3","trial_type":"audio-button-response","trial_index":132,"time_elapsed":227110,"internal_node_id":"0.0-1.0-0.63"},{"rt":2676.6000000025088,"stimulus":"audio/actual/s8-guide-10bis_jenseigne_beaucoup.mp3","button_pressed":"0","test_part":"test","phrase":"10bis","condition":"guide","subject":"s8","trial_type":"audio-button-response","trial_index":134,"time_elapsed":230395,"internal_node_id":"0.0-1.0-0.64"},{"rt":2790.3349999978673,"stimulus":"audio/actual/s3-imitation-10_jean_saigne_beaucoup-2_cut1norm.mp3","button_pressed":"0","test_part":"test","phrase":"10","condition":"imitation","subject":"s3","trial_type":"audio-button-response","trial_index":136,"time_elapsed":233793,"internal_node_id":"0.0-1.0-0.65"},{"rt":4804.200000002311,"stimulus":"audio/actual/s4-imitation-10bis_jenseigne_beaucoup-0_cut1norm.mp3","button_pressed":"2","test_part":"test","phrase":"10bis","condition":"imitation","subject":"s4","trial_type":"audio-button-response","trial_index":138,"time_elapsed":239441,"internal_node_id":"0.0-1.0-0.66"},{"rt":1236.1850000015693,"stimulus":"audio/actual/s4-imitation-10bis_jenseigne_beaucoup-0_cut1norm.mp3","button_pressed":"1","test_part":"test","phrase":"10bis","condition":"imitation","subject":"s4","trial_type":"audio-button-response","trial_index":139,"time_elapsed":240678,"internal_node_id":"0.0-1.0-1.66-0.66"},{"rt":1878.4750000013446,"stimulus":"audio/actual/s9-lecture-10bis_jenseigne_beaucoup-2_cut1norm.mp3","button_pressed":"1","test_part":"test","phrase":"10bis","condition":"lecture","subject":"s9","trial_type":"audio-button-response","trial_index":141,"time_elapsed":243097,"internal_node_id":"0.0-1.0-0.67"},{"rt":1316.0250000000815,"stimulus":"audio/actual/s7-imitation-10_jean_saigne_beaucoup-3_cut1norm.mp3","button_pressed":"0","test_part":"test","phrase":"10","condition":"imitation","subject":"s7","trial_type":"audio-button-response","trial_index":143,"time_elapsed":245010,"internal_node_id":"0.0-1.0-0.68"},{"rt":1586.315000000468,"stimulus":"audio/actual/s2-imitation-10_jean_saigne_beaucoup-4_cut1norm.mp3","button_pressed":"0","test_part":"test","phrase":"10","condition":"imitation","subject":"s2","trial_type":"audio-button-response","trial_index":145,"time_elapsed":247159,"internal_node_id":"0.0-1.0-0.69"},{"rt":1575.1899999995658,"stimulus":"audio/actual/s6-blind-10_jean_saigne_beaucoup.mp3","button_pressed":"1","test_part":"test","phrase":"10","condition":"blind","subject":"s6","trial_type":"audio-button-response","trial_index":147,"time_elapsed":249296,"internal_node_id":"0.0-1.0-0.70"},{"rt":1844.874999998865,"stimulus":"audio/actual/s1-blind-10bis_jenseigne_beaucoup.mp3","button_pressed":"1","test_part":"test","phrase":"10bis","condition":"blind","subject":"s1","trial_type":"audio-button-response","trial_index":149,"time_elapsed":251783,"internal_node_id":"0.0-1.0-0.71"},{"rt":1438.6849999973492,"stimulus":"audio/actual/s2-guide-10_jean_saigne_beaucoup.mp3","button_pressed":"0","test_part":"test","phrase":"10","condition":"guide","subject":"s2","trial_type":"audio-button-response","trial_index":151,"time_elapsed":253841,"internal_node_id":"0.0-1.0-0.72"},{"rt":3341.499999998632,"stimulus":"audio/actual/s10-guide-10bis_jenseigne_beaucoup.mp3","button_pressed":"2","test_part":"test","phrase":"10bis","condition":"guide","subject":"s10","trial_type":"audio-button-response","trial_index":153,"time_elapsed":257700,"internal_node_id":"0.0-1.0-0.73"},{"rt":2417.670000002545,"stimulus":"audio/actual/s10-guide-10bis_jenseigne_beaucoup.mp3","button_pressed":"1","test_part":"test","phrase":"10bis","condition":"guide","subject":"s10","trial_type":"audio-button-response","trial_index":154,"time_elapsed":260119,"internal_node_id":"0.0-1.0-1.73-0.73"},{"rt":1721.2450000006938,"stimulus":"audio/actual/s6-guide-10bis_jenseigne_beaucoup.mp3","button_pressed":"1","test_part":"test","phrase":"10bis","condition":"guide","subject":"s6","trial_type":"audio-button-response","trial_index":156,"time_elapsed":263540,"internal_node_id":"0.0-1.0-0.74"},{"rt":1102.005000000645,"stimulus":"audio/actual/s10-lecture-10_jean_saigne_beaucoup-10_cut1norm.mp3","button_pressed":"1","test_part":"test","phrase":"10","condition":"lecture","subject":"s10","trial_type":"audio-button-response","trial_index":158,"time_elapsed":265215,"internal_node_id":"0.0-1.0-0.75"},{"rt":1675.3649999991176,"stimulus":"audio/actual/s7-blind-10_jean_saigne_beaucoup.mp3","button_pressed":"0","test_part":"test","phrase":"10","condition":"blind","subject":"s7","trial_type":"audio-button-response","trial_index":160,"time_elapsed":267454,"internal_node_id":"0.0-1.0-0.76"},{"rt":1035.4299999999348,"stimulus":"audio/actual/s9-imitation-10_jean_saigne_beaucoup-4_cut1norm.mp3","button_pressed":"0","test_part":"test","phrase":"10","condition":"imitation","subject":"s9","trial_type":"audio-button-response","trial_index":162,"time_elapsed":268962,"internal_node_id":"0.0-1.0-0.77"},{"rt":1349.945000001695,"stimulus":"audio/actual/s5-imitation-10bis_jenseigne_beaucoup-11_cut1norm.mp3","button_pressed":"1","test_part":"test","phrase":"10bis","condition":"imitation","subject":"s5","trial_type":"audio-button-response","trial_index":164,"time_elapsed":270897,"internal_node_id":"0.0-1.0-0.78"},{"rt":1428.6449999999022,"stimulus":"audio/actual/s9-lecture-10_jean_saigne_beaucoup-3_cut1norm.mp3","button_pressed":"0","test_part":"test","phrase":"10","condition":"lecture","subject":"s9","trial_type":"audio-button-response","trial_index":166,"time_elapsed":272967,"internal_node_id":"0.0-1.0-0.79"}]