[{"rt":6802.290000021458,"stimulus":"audio/actual/s5-guide-10bis_jenseigne_beaucoup.mp3","button_pressed":"2","test_part":"test","phrase":"10bis","condition":"guide","subject":"s5","trial_type":"audio-button-response","trial_index":1,"time_elapsed":10438,"internal_node_id":"0.0-1.0-0.0"},{"rt":4259.420000016689,"stimulus":"audio/actual/s5-guide-10bis_jenseigne_beaucoup.mp3","button_pressed":"1","test_part":"test","phrase":"10bis","condition":"guide","subject":"s5","trial_type":"audio-button-response","trial_index":2,"time_elapsed":14702,"internal_node_id":"0.0-1.0-1.0-0.0"},{"rt":4525.0750000122935,"stimulus":"audio/actual/s1-blind-10bis_jenseigne_beaucoup.mp3","button_pressed":"0","test_part":"test","phrase":"10bis","condition":"blind","subject":"s1","trial_type":"audio-button-response","trial_index":4,"time_elapsed":20292,"internal_node_id":"0.0-1.0-0.1"},{"rt":4649.650000035763,"stimulus":"audio/actual/s5-guide-10_jean_saigne_beaucoup.mp3","button_pressed":"0","test_part":"test","phrase":"10","condition":"guide","subject":"s5","trial_type":"audio-button-response","trial_index":6,"time_elapsed":25927,"internal_node_id":"0.0-1.0-0.2"},{"rt":3567.350000026636,"stimulus":"audio/actual/s1-guide-10_jean_saigne_beaucoup.mp3","button_pressed":"0","test_part":"test","phrase":"10","condition":"guide","subject":"s1","trial_type":"audio-button-response","trial_index":8,"time_elapsed":30024,"internal_node_id":"0.0-1.0-0.3"},{"rt":1604.2949999682605,"stimulus":"audio/actual/s5-imitation-10bis_jenseigne_beaucoup-11_cut1norm.mp3","button_pressed":"1","test_part":"test","phrase":"10bis","condition":"imitation","subject":"s5","trial_type":"audio-button-response","trial_index":10,"time_elapsed":32430,"internal_node_id":"0.0-1.0-0.4"},{"rt":2074.934999924153,"stimulus":"audio/actual/s6-imitation-10_jean_saigne_beaucoup-5_cut1norm.mp3","button_pressed":"1","test_part":"test","phrase":"10","condition":"imitation","subject":"s6","trial_type":"audio-button-response","trial_index":12,"time_elapsed":35091,"internal_node_id":"0.0-1.0-0.5"},{"rt":2129.3450000230223,"stimulus":"audio/actual/s4-guide-10bis_jenseigne_beaucoup.mp3","button_pressed":"1","test_part":"test","phrase":"10bis","condition":"guide","subject":"s4","trial_type":"audio-button-response","trial_index":14,"time_elapsed":38020,"internal_node_id":"0.0-1.0-0.6"},{"rt":3589.41000001505,"stimulus":"audio/actual/s10-imitation-10bis_jenseigne_beaucoup-10_cut1norm.mp3","button_pressed":"0","test_part":"test","phrase":"10bis","condition":"imitation","subject":"s10","trial_type":"audio-button-response","trial_index":16,"time_elapsed":42096,"internal_node_id":"0.0-1.0-0.7"},{"rt":2345.3799999551848,"stimulus":"audio/actual/s6-guide-10_jean_saigne_beaucoup.mp3","button_pressed":"0","test_part":"test","phrase":"10","condition":"guide","subject":"s6","trial_type":"audio-button-response","trial_index":18,"time_elapsed":44992,"internal_node_id":"0.0-1.0-0.8"},{"rt":1959.8799999803305,"stimulus":"audio/actual/s9-lecture-10_jean_saigne_beaucoup-3_cut1norm.mp3","button_pressed":"0","test_part":"test","phrase":"10","condition":"lecture","subject":"s9","trial_type":"audio-button-response","trial_index":20,"time_elapsed":47393,"internal_node_id":"0.0-1.0-0.9"},{"rt":2859.234999981709,"stimulus":"audio/actual/s4-blind-10bis_jenseigne_beaucoup.mp3","button_pressed":"1","test_part":"test","phrase":"10bis","condition":"blind","subject":"s4","trial_type":"audio-button-response","trial_index":22,"time_elapsed":50834,"internal_node_id":"0.0-1.0-0.10"},{"rt":1457.8299999702722,"stimulus":"audio/actual/s9-imitation-10bis_jenseigne_beaucoup-5_cut1norm.mp3","button_pressed":"1","test_part":"test","phrase":"10bis","condition":"imitation","subject":"s9","trial_type":"audio-button-response","trial_index":24,"time_elapsed":52862,"internal_node_id":"0.0-1.0-0.11"},{"rt":2489.7999999811873,"stimulus":"audio/actual/s4-lecture-10_jean_saigne_beaucoup-1_cut1norm.mp3","button_pressed":"0","test_part":"test","phrase":"10","condition":"lecture","subject":"s4","trial_type":"audio-button-response","trial_index":26,"time_elapsed":55588,"internal_node_id":"0.0-1.0-0.12"},{"rt":2491.7200000490993,"stimulus":"audio/actual/s7-guide-10_jean_saigne_beaucoup.mp3","button_pressed":"0","test_part":"test","phrase":"10","condition":"guide","subject":"s7","trial_type":"audio-button-response","trial_index":28,"time_elapsed":58573,"internal_node_id":"0.0-1.0-0.13"},{"rt":2030.7849999517202,"stimulus":"audio/actual/s10-lecture-10bis_jenseigne_beaucoup-11_cut1norm.mp3","button_pressed":"1","test_part":"test","phrase":"10bis","condition":"lecture","subject":"s10","trial_type":"audio-button-response","trial_index":30,"time_elapsed":61127,"internal_node_id":"0.0-1.0-0.14"},{"rt":2238.7699999380857,"stimulus":"audio/actual/s5-blind-10_jean_saigne_beaucoup.mp3","button_pressed":"0","test_part":"test","phrase":"10","condition":"blind","subject":"s5","trial_type":"audio-button-response","trial_index":32,"time_elapsed":63737,"internal_node_id":"0.0-1.0-0.15"},{"rt":4238.974999985658,"stimulus":"audio/actual/s3-guide-10bis_jenseigne_beaucoup.mp3","button_pressed":"0","test_part":"test","phrase":"10bis","condition":"guide","subject":"s3","trial_type":"audio-button-response","trial_index":34,"time_elapsed":68437,"internal_node_id":"0.0-1.0-0.16"},{"rt":1730.3250000113621,"stimulus":"audio/actual/s1-lecture-10_jean_saigne_beaucoup-2_cut1norm.mp3","button_pressed":"1","test_part":"test","phrase":"10","condition":"lecture","subject":"s1","trial_type":"audio-button-response","trial_index":36,"time_elapsed":70626,"internal_node_id":"0.0-1.0-0.17"},{"rt":2083.574999938719,"stimulus":"audio/actual/s2-lecture-10bis_jenseigne_beaucoup-6_cut1norm.mp3","button_pressed":"1","test_part":"test","phrase":"10bis","condition":"lecture","subject":"s2","trial_type":"audio-button-response","trial_index":38,"time_elapsed":73006,"internal_node_id":"0.0-1.0-0.18"},{"rt":1847.1100000897422,"stimulus":"audio/actual/s9-guide-10_jean_saigne_beaucoup.mp3","button_pressed":"0","test_part":"test","phrase":"10","condition":"guide","subject":"s9","trial_type":"audio-button-response","trial_index":40,"time_elapsed":75293,"internal_node_id":"0.0-1.0-0.19"},{"rt":1813.2449999684468,"stimulus":"audio/actual/s1-lecture-10bis_jenseigne_beaucoup-3_cut1norm.mp3","button_pressed":"1","test_part":"test","phrase":"10bis","condition":"lecture","subject":"s1","trial_type":"audio-button-response","trial_index":42,"time_elapsed":77529,"internal_node_id":"0.0-1.0-0.20"},{"rt":1512.319999979809,"stimulus":"audio/actual/s9-blind-10_jean_saigne_beaucoup.mp3","button_pressed":"0","test_part":"test","phrase":"10","condition":"blind","subject":"s9","trial_type":"audio-button-response","trial_index":44,"time_elapsed":79465,"internal_node_id":"0.0-1.0-0.21"},{"rt":1431.6700000781566,"stimulus":"audio/actual/s8-guide-10_jean_saigne_beaucoup.mp3","button_pressed":"0","test_part":"test","phrase":"10","condition":"guide","subject":"s8","trial_type":"audio-button-response","trial_index":46,"time_elapsed":81334,"internal_node_id":"0.0-1.0-0.22"},{"rt":4231.705000041984,"stimulus":"audio/actual/s2-imitation-10bis_jenseigne_beaucoup-5_cut1norm.mp3","button_pressed":"0","test_part":"test","phrase":"10bis","condition":"imitation","subject":"s2","trial_type":"audio-button-response","trial_index":48,"time_elapsed":86109,"internal_node_id":"0.0-1.0-0.23"},{"rt":1530.9650000417605,"stimulus":"audio/actual/s7-lecture-10_jean_saigne_beaucoup-8_cut1norm.mp3","button_pressed":"1","test_part":"test","phrase":"10","condition":"lecture","subject":"s7","trial_type":"audio-button-response","trial_index":50,"time_elapsed":87855,"internal_node_id":"0.0-1.0-0.24"},{"rt":5772.824999992736,"stimulus":"audio/actual/s10-guide-10_jean_saigne_beaucoup.mp3","button_pressed":"1","test_part":"test","phrase":"10","condition":"guide","subject":"s10","trial_type":"audio-button-response","trial_index":52,"time_elapsed":93850,"internal_node_id":"0.0-1.0-0.25"},{"rt":2227.669999934733,"stimulus":"audio/actual/s9-imitation-10_jean_saigne_beaucoup-4_cut1norm.mp3","button_pressed":"0","test_part":"test","phrase":"10","condition":"imitation","subject":"s9","trial_type":"audio-button-response","trial_index":54,"time_elapsed":97025,"internal_node_id":"0.0-1.0-0.26"},{"rt":5567.925000097603,"stimulus":"audio/actual/s1-blind-10_jean_saigne_beaucoup.mp3","button_pressed":"1","test_part":"test","phrase":"10","condition":"blind","subject":"s1","trial_type":"audio-button-response","trial_index":56,"time_elapsed":102973,"internal_node_id":"0.0-1.0-0.27"},{"rt":1594.249999965541,"stimulus":"audio/actual/s9-lecture-10bis_jenseigne_beaucoup-2_cut1norm.mp3","button_pressed":"1","test_part":"test","phrase":"10bis","condition":"lecture","subject":"s9","trial_type":"audio-button-response","trial_index":58,"time_elapsed":104926,"internal_node_id":"0.0-1.0-0.28"},{"rt":1586.589999962598,"stimulus":"audio/actual/s5-blind-10bis_jenseigne_beaucoup.mp3","button_pressed":"1","test_part":"test","phrase":"10bis","condition":"blind","subject":"s5","trial_type":"audio-button-response","trial_index":60,"time_elapsed":106907,"internal_node_id":"0.0-1.0-0.29"},{"rt":3500.5700000328943,"stimulus":"audio/actual/s6-blind-10_jean_saigne_beaucoup.mp3","button_pressed":"1","test_part":"test","phrase":"10","condition":"blind","subject":"s6","trial_type":"audio-button-response","trial_index":62,"time_elapsed":110713,"internal_node_id":"0.0-1.0-0.30"},{"rt":1856.084999977611,"stimulus":"audio/actual/s4-imitation-10_jean_saigne_beaucoup-1_cut1norm.mp3","button_pressed":"0","test_part":"test","phrase":"10","condition":"imitation","subject":"s4","trial_type":"audio-button-response","trial_index":64,"time_elapsed":112784,"internal_node_id":"0.0-1.0-0.31"},{"rt":1487.9499999806285,"stimulus":"audio/actual/s2-guide-10bis_jenseigne_beaucoup.mp3","button_pressed":"1","test_part":"test","phrase":"10bis","condition":"guide","subject":"s2","trial_type":"audio-button-response","trial_index":66,"time_elapsed":114786,"internal_node_id":"0.0-1.0-0.32"},{"rt":3456.250000046566,"stimulus":"audio/actual/s3-blind-10bis_jenseigne_beaucoup.mp3","button_pressed":"0","test_part":"test","phrase":"10bis","condition":"blind","subject":"s3","trial_type":"audio-button-response","trial_index":68,"time_elapsed":118841,"internal_node_id":"0.0-1.0-0.33"},{"rt":1876.369999954477,"stimulus":"audio/actual/s2-lecture-10_jean_saigne_beaucoup-7_cut1norm.mp3","button_pressed":"0","test_part":"test","phrase":"10","condition":"lecture","subject":"s2","trial_type":"audio-button-response","trial_index":70,"time_elapsed":121146,"internal_node_id":"0.0-1.0-0.34"},{"rt":1422.4999999860302,"stimulus":"audio/actual/s7-imitation-10bis_jenseigne_beaucoup-2_cut1norm.mp3","button_pressed":"1","test_part":"test","phrase":"10bis","condition":"imitation","subject":"s7","trial_type":"audio-button-response","trial_index":72,"time_elapsed":122879,"internal_node_id":"0.0-1.0-0.35"},{"rt":1523.3999999472871,"stimulus":"audio/actual/s5-imitation-10_jean_saigne_beaucoup-10_cut1norm.mp3","button_pressed":"0","test_part":"test","phrase":"10","condition":"imitation","subject":"s5","trial_type":"audio-button-response","trial_index":74,"time_elapsed":124670,"internal_node_id":"0.0-1.0-0.36"},{"rt":1466.0500000463799,"stimulus":"audio/actual/s3-lecture-10bis_jenseigne_beaucoup-3_cut1norm.mp3","button_pressed":"1","test_part":"test","phrase":"10bis","condition":"lecture","subject":"s3","trial_type":"audio-button-response","trial_index":76,"time_elapsed":126553,"internal_node_id":"0.0-1.0-0.37"},{"rt":1323.0050000129268,"stimulus":"audio/actual/s6-imitation-10bis_jenseigne_beaucoup-4_cut1norm.mp3","button_pressed":"1","test_part":"test","phrase":"10bis","condition":"imitation","subject":"s6","trial_type":"audio-button-response","trial_index":78,"time_elapsed":128240,"internal_node_id":"0.0-1.0-0.38"},{"rt":1392.6800000481308,"stimulus":"audio/actual/s5-lecture-10bis_jenseigne_beaucoup-4_cut1norm.mp3","button_pressed":"1","test_part":"test","phrase":"10bis","condition":"lecture","subject":"s5","trial_type":"audio-button-response","trial_index":80,"time_elapsed":129821,"internal_node_id":"0.0-1.0-0.39"},{"rt":1560.4649999877438,"stimulus":"audio/actual/s7-blind-10_jean_saigne_beaucoup.mp3","button_pressed":"0","test_part":"test","phrase":"10","condition":"blind","subject":"s7","trial_type":"audio-button-response","trial_index":82,"time_elapsed":131661,"internal_node_id":"0.0-1.0-0.40"},{"rt":1771.7049999628216,"stimulus":"audio/actual/s4-lecture-10bis_jenseigne_beaucoup-0_cut1norm.mp3","button_pressed":"1","test_part":"test","phrase":"10bis","condition":"lecture","subject":"s4","trial_type":"audio-button-response","trial_index":84,"time_elapsed":133758,"internal_node_id":"0.0-1.0-0.41"},{"rt":1261.0550000099465,"stimulus":"audio/actual/s7-lecture-10bis_jenseigne_beaucoup-9_cut1norm.mp3","button_pressed":"1","test_part":"test","phrase":"10bis","condition":"lecture","subject":"s7","trial_type":"audio-button-response","trial_index":86,"time_elapsed":135257,"internal_node_id":"0.0-1.0-0.42"},{"rt":1249.4850000366569,"stimulus":"audio/actual/s8-guide-10bis_jenseigne_beaucoup.mp3","button_pressed":"1","test_part":"test","phrase":"10bis","condition":"guide","subject":"s8","trial_type":"audio-button-response","trial_index":88,"time_elapsed":136757,"internal_node_id":"0.0-1.0-0.43"},{"rt":1796.7700000153854,"stimulus":"audio/actual/s2-blind-10_jean_saigne_beaucoup.mp3","button_pressed":"1","test_part":"test","phrase":"10","condition":"blind","subject":"s2","trial_type":"audio-button-response","trial_index":90,"time_elapsed":138739,"internal_node_id":"0.0-1.0-0.44"},{"rt":1845.1049999566749,"stimulus":"audio/actual/s6-lecture-10_jean_saigne_beaucoup-1_cut1norm.mp3","button_pressed":"0","test_part":"test","phrase":"10","condition":"lecture","subject":"s6","trial_type":"audio-button-response","trial_index":92,"time_elapsed":140788,"internal_node_id":"0.0-1.0-0.45"},{"rt":1535.9649999300018,"stimulus":"audio/actual/s4-guide-10_jean_saigne_beaucoup.mp3","button_pressed":"0","test_part":"test","phrase":"10","condition":"guide","subject":"s4","trial_type":"audio-button-response","trial_index":94,"time_elapsed":142579,"internal_node_id":"0.0-1.0-0.46"},{"rt":1565.0299999397248,"stimulus":"audio/actual/s8-blind-10_jean_saigne_beaucoup.mp3","button_pressed":"1","test_part":"test","phrase":"10","condition":"blind","subject":"s8","trial_type":"audio-button-response","trial_index":96,"time_elapsed":144836,"internal_node_id":"0.0-1.0-0.47"},{"rt":1568.5499999672174,"stimulus":"audio/actual/s7-guide-10bis_jenseigne_beaucoup.mp3","button_pressed":"1","test_part":"test","phrase":"10bis","condition":"guide","subject":"s7","trial_type":"audio-button-response","trial_index":98,"time_elapsed":146810,"internal_node_id":"0.0-1.0-0.48"},{"rt":1415.6149999471381,"stimulus":"audio/actual/s5-lecture-10_jean_saigne_beaucoup-5_cut1norm.mp3","button_pressed":"0","test_part":"test","phrase":"10","condition":"lecture","subject":"s5","trial_type":"audio-button-response","trial_index":100,"time_elapsed":148513,"internal_node_id":"0.0-1.0-0.49"},{"rt":2306.09500000719,"stimulus":"audio/actual/s10-blind-10bis_jenseigne_beaucoup.mp3","button_pressed":"0","test_part":"test","phrase":"10bis","condition":"blind","subject":"s10","trial_type":"audio-button-response","trial_index":102,"time_elapsed":151386,"internal_node_id":"0.0-1.0-0.50"},{"rt":1734.1299999970943,"stimulus":"audio/actual/s8-imitation-10bis_jenseigne_beaucoup-11_cut1norm.mp3","button_pressed":"1","test_part":"test","phrase":"10bis","condition":"imitation","subject":"s8","trial_type":"audio-button-response","trial_index":104,"time_elapsed":153496,"internal_node_id":"0.0-1.0-0.51"},{"rt":2763.6650000931695,"stimulus":"audio/actual/s4-blind-10_jean_saigne_beaucoup.mp3","button_pressed":"0","test_part":"test","phrase":"10","condition":"blind","subject":"s4","trial_type":"audio-button-response","trial_index":106,"time_elapsed":156995,"internal_node_id":"0.0-1.0-0.52"},{"rt":1705.1199999405071,"stimulus":"audio/actual/s8-blind-10bis_jenseigne_beaucoup.mp3","button_pressed":"1","test_part":"test","phrase":"10bis","condition":"blind","subject":"s8","trial_type":"audio-button-response","trial_index":108,"time_elapsed":158933,"internal_node_id":"0.0-1.0-0.53"},{"rt":1540.114999981597,"stimulus":"audio/actual/s3-imitation-10bis_jenseigne_beaucoup-3_cut1norm.mp3","button_pressed":"1","test_part":"test","phrase":"10bis","condition":"imitation","subject":"s3","trial_type":"audio-button-response","trial_index":110,"time_elapsed":160809,"internal_node_id":"0.0-1.0-0.54"},{"rt":1263.2000000448897,"stimulus":"audio/actual/s2-imitation-10_jean_saigne_beaucoup-4_cut1norm.mp3","button_pressed":"0","test_part":"test","phrase":"10","condition":"imitation","subject":"s2","trial_type":"audio-button-response","trial_index":112,"time_elapsed":162430,"internal_node_id":"0.0-1.0-0.55"},{"rt":1449.2849999805912,"stimulus":"audio/actual/s1-imitation-10bis_jenseigne_beaucoup-10_cut1norm.mp3","button_pressed":"1","test_part":"test","phrase":"10bis","condition":"imitation","subject":"s1","trial_type":"audio-button-response","trial_index":114,"time_elapsed":164130,"internal_node_id":"0.0-1.0-0.56"},{"rt":1264.394999947399,"stimulus":"audio/actual/s2-guide-10_jean_saigne_beaucoup.mp3","button_pressed":"0","test_part":"test","phrase":"10","condition":"guide","subject":"s2","trial_type":"audio-button-response","trial_index":116,"time_elapsed":165787,"internal_node_id":"0.0-1.0-0.57"},{"rt":2114.9000000441447,"stimulus":"audio/actual/s10-imitation-10_jean_saigne_beaucoup-11_cut1norm.mp3","button_pressed":"0","test_part":"test","phrase":"10","condition":"imitation","subject":"s10","trial_type":"audio-button-response","trial_index":118,"time_elapsed":168146,"internal_node_id":"0.0-1.0-0.58"},{"rt":2905.2150000352412,"stimulus":"audio/actual/s1-guide-10bis_jenseigne_beaucoup.mp3","button_pressed":"0","test_part":"test","phrase":"10bis","condition":"guide","subject":"s1","trial_type":"audio-button-response","trial_index":120,"time_elapsed":171554,"internal_node_id":"0.0-1.0-0.59"},{"rt":1210.1650000549853,"stimulus":"audio/actual/s9-blind-10bis_jenseigne_beaucoup.mp3","button_pressed":"1","test_part":"test","phrase":"10bis","condition":"blind","subject":"s9","trial_type":"audio-button-response","trial_index":122,"time_elapsed":172994,"internal_node_id":"0.0-1.0-0.60"},{"rt":3083.485000068322,"stimulus":"audio/actual/s6-blind-10bis_jenseigne_beaucoup.mp3","button_pressed":"0","test_part":"test","phrase":"10bis","condition":"blind","subject":"s6","trial_type":"audio-button-response","trial_index":124,"time_elapsed":176311,"internal_node_id":"0.0-1.0-0.61"},{"rt":2025.55499994196,"stimulus":"audio/actual/s2-blind-10bis_jenseigne_beaucoup.mp3","button_pressed":"1","test_part":"test","phrase":"10bis","condition":"blind","subject":"s2","trial_type":"audio-button-response","trial_index":126,"time_elapsed":178554,"internal_node_id":"0.0-1.0-0.62"},{"rt":5932.665000087582,"stimulus":"audio/actual/s10-guide-10bis_jenseigne_beaucoup.mp3","button_pressed":"0","test_part":"test","phrase":"10bis","condition":"guide","subject":"s10","trial_type":"audio-button-response","trial_index":128,"time_elapsed":184700,"internal_node_id":"0.0-1.0-0.63"},{"rt":1442.9699999745935,"stimulus":"audio/actual/s8-lecture-10bis_jenseigne_beaucoup-11_cut1norm.mp3","button_pressed":"1","test_part":"test","phrase":"10bis","condition":"lecture","subject":"s8","trial_type":"audio-button-response","trial_index":130,"time_elapsed":186375,"internal_node_id":"0.0-1.0-0.64"},{"rt":1429.740000050515,"stimulus":"audio/actual/s3-guide-10_jean_saigne_beaucoup.mp3","button_pressed":"0","test_part":"test","phrase":"10","condition":"guide","subject":"s3","trial_type":"audio-button-response","trial_index":132,"time_elapsed":188159,"internal_node_id":"0.0-1.0-0.65"},{"rt":2552.955000079237,"stimulus":"audio/actual/s7-imitation-10_jean_saigne_beaucoup-3_cut1norm.mp3","button_pressed":"0","test_part":"test","phrase":"10","condition":"imitation","subject":"s7","trial_type":"audio-button-response","trial_index":134,"time_elapsed":190995,"internal_node_id":"0.0-1.0-0.66"},{"rt":1641.1050000460818,"stimulus":"audio/actual/s3-imitation-10_jean_saigne_beaucoup-2_cut1norm.mp3","button_pressed":"0","test_part":"test","phrase":"10","condition":"imitation","subject":"s3","trial_type":"audio-button-response","trial_index":136,"time_elapsed":193622,"internal_node_id":"0.0-1.0-0.67"},{"rt":1333.0700000515208,"stimulus":"audio/actual/s7-blind-10bis_jenseigne_beaucoup.mp3","button_pressed":"1","test_part":"test","phrase":"10bis","condition":"blind","subject":"s7","trial_type":"audio-button-response","trial_index":138,"time_elapsed":195293,"internal_node_id":"0.0-1.0-0.68"},{"rt":1295.9349999437109,"stimulus":"audio/actual/s9-guide-10bis_jenseigne_beaucoup.mp3","button_pressed":"1","test_part":"test","phrase":"10bis","condition":"guide","subject":"s9","trial_type":"audio-button-response","trial_index":140,"time_elapsed":196950,"internal_node_id":"0.0-1.0-0.69"},{"rt":1452.1749999839813,"stimulus":"audio/actual/s8-imitation-10_jean_saigne_beaucoup-10_cut1norm.mp3","button_pressed":"0","test_part":"test","phrase":"10","condition":"imitation","subject":"s8","trial_type":"audio-button-response","trial_index":142,"time_elapsed":198638,"internal_node_id":"0.0-1.0-0.70"},{"rt":3023.0849999934435,"stimulus":"audio/actual/s10-blind-10_jean_saigne_beaucoup.mp3","button_pressed":"1","test_part":"test","phrase":"10","condition":"blind","subject":"s10","trial_type":"audio-button-response","trial_index":144,"time_elapsed":201968,"internal_node_id":"0.0-1.0-0.71"},{"rt":1520.825000014156,"stimulus":"audio/actual/s8-lecture-10_jean_saigne_beaucoup-10_cut1norm.mp3","button_pressed":"0","test_part":"test","phrase":"10","condition":"lecture","subject":"s8","trial_type":"audio-button-response","trial_index":146,"time_elapsed":203687,"internal_node_id":"0.0-1.0-0.72"},{"rt":2096.849999972619,"stimulus":"audio/actual/s10-lecture-10_jean_saigne_beaucoup-10_cut1norm.mp3","button_pressed":"1","test_part":"test","phrase":"10","condition":"lecture","subject":"s10","trial_type":"audio-button-response","trial_index":148,"time_elapsed":205980,"internal_node_id":"0.0-1.0-0.73"},{"rt":1669.6000000229105,"stimulus":"audio/actual/s3-lecture-10_jean_saigne_beaucoup-2_cut1norm.mp3","button_pressed":"0","test_part":"test","phrase":"10","condition":"lecture","subject":"s3","trial_type":"audio-button-response","trial_index":150,"time_elapsed":207814,"internal_node_id":"0.0-1.0-0.74"},{"rt":1476.699999999255,"stimulus":"audio/actual/s4-imitation-10bis_jenseigne_beaucoup-0_cut1norm.mp3","button_pressed":"1","test_part":"test","phrase":"10bis","condition":"imitation","subject":"s4","trial_type":"audio-button-response","trial_index":152,"time_elapsed":209544,"internal_node_id":"0.0-1.0-0.75"},{"rt":1587.305000051856,"stimulus":"audio/actual/s6-guide-10bis_jenseigne_beaucoup.mp3","button_pressed":"1","test_part":"test","phrase":"10bis","condition":"guide","subject":"s6","trial_type":"audio-button-response","trial_index":154,"time_elapsed":211629,"internal_node_id":"0.0-1.0-0.76"},{"rt":1551.0449999710545,"stimulus":"audio/actual/s1-imitation-10_jean_saigne_beaucoup-11_cut1norm.mp3","button_pressed":"0","test_part":"test","phrase":"10","condition":"imitation","subject":"s1","trial_type":"audio-button-response","trial_index":156,"time_elapsed":213479,"internal_node_id":"0.0-1.0-0.77"},{"rt":1437.7999999560416,"stimulus":"audio/actual/s6-lecture-10bis_jenseigne_beaucoup-0_cut1norm.mp3","button_pressed":"1","test_part":"test","phrase":"10bis","condition":"lecture","subject":"s6","trial_type":"audio-button-response","trial_index":158,"time_elapsed":215133,"internal_node_id":"0.0-1.0-0.78"},{"rt":1738.2050000596792,"stimulus":"audio/actual/s3-blind-10_jean_saigne_beaucoup.mp3","button_pressed":"0","test_part":"test","phrase":"10","condition":"blind","subject":"s3","trial_type":"audio-button-response","trial_index":160,"time_elapsed":217076,"internal_node_id":"0.0-1.0-0.79"}]