[{"rt":3807.105000014417,"stimulus":"audio/actual/s1-lecture-10bis_jenseigne_beaucoup-3_cut1norm.mp3","button_pressed":"2","test_part":"test","phrase":"10bis","condition":"lecture","subject":"s1","trial_type":"audio-button-response","trial_index":1,"time_elapsed":20722,"internal_node_id":"0.0-1.0-0.0"},{"rt":3914.744999987306,"stimulus":"audio/actual/s1-lecture-10bis_jenseigne_beaucoup-3_cut1norm.mp3","button_pressed":"1","test_part":"test","phrase":"10bis","condition":"lecture","subject":"s1","trial_type":"audio-button-response","trial_index":2,"time_elapsed":24640,"internal_node_id":"0.0-1.0-1.0-0.0"},{"rt":5184.145000006538,"stimulus":"audio/actual/s6-blind-10_jean_saigne_beaucoup.mp3","button_pressed":"2","test_part":"test","phrase":"10","condition":"blind","subject":"s6","trial_type":"audio-button-response","trial_index":4,"time_elapsed":30720,"internal_node_id":"0.0-1.0-0.1"},{"rt":5433.61000000732,"stimulus":"audio/actual/s6-blind-10_jean_saigne_beaucoup.mp3","button_pressed":"0","test_part":"test","phrase":"10","condition":"blind","subject":"s6","trial_type":"audio-button-response","trial_index":5,"time_elapsed":36156,"internal_node_id":"0.0-1.0-1.1-0.1"},{"rt":11215.525000006892,"stimulus":"audio/actual/s2-blind-10bis_jenseigne_beaucoup.mp3","button_pressed":"2","test_part":"test","phrase":"10bis","condition":"blind","subject":"s2","trial_type":"audio-button-response","trial_index":7,"time_elapsed":48220,"internal_node_id":"0.0-1.0-0.2"},{"rt":2770.844999991823,"stimulus":"audio/actual/s2-blind-10bis_jenseigne_beaucoup.mp3","button_pressed":"1","test_part":"test","phrase":"10bis","condition":"blind","subject":"s2","trial_type":"audio-button-response","trial_index":8,"time_elapsed":50993,"internal_node_id":"0.0-1.0-1.2-0.2"},{"rt":2749.7549999970943,"stimulus":"audio/actual/s6-lecture-10bis_jenseigne_beaucoup-0_cut1norm.mp3","button_pressed":"1","test_part":"test","phrase":"10bis","condition":"lecture","subject":"s6","trial_type":"audio-button-response","trial_index":10,"time_elapsed":54471,"internal_node_id":"0.0-1.0-0.3"},{"rt":2286.000000021886,"stimulus":"audio/actual/s7-lecture-10_jean_saigne_beaucoup-8_cut1norm.mp3","button_pressed":"0","test_part":"test","phrase":"10","condition":"lecture","subject":"s7","trial_type":"audio-button-response","trial_index":12,"time_elapsed":57329,"internal_node_id":"0.0-1.0-0.4"},{"rt":2508.2099999999627,"stimulus":"audio/actual/s9-guide-10_jean_saigne_beaucoup.mp3","button_pressed":"0","test_part":"test","phrase":"10","condition":"guide","subject":"s9","trial_type":"audio-button-response","trial_index":14,"time_elapsed":60377,"internal_node_id":"0.0-1.0-0.5"},{"rt":7366.3850000011735,"stimulus":"audio/actual/s1-guide-10bis_jenseigne_beaucoup.mp3","button_pressed":"0","test_part":"test","phrase":"10bis","condition":"guide","subject":"s1","trial_type":"audio-button-response","trial_index":16,"time_elapsed":68177,"internal_node_id":"0.0-1.0-0.6"},{"rt":2028.8850000069942,"stimulus":"audio/actual/s5-imitation-10bis_jenseigne_beaucoup-11_cut1norm.mp3","button_pressed":"1","test_part":"test","phrase":"10bis","condition":"imitation","subject":"s5","trial_type":"audio-button-response","trial_index":18,"time_elapsed":70738,"internal_node_id":"0.0-1.0-0.7"},{"rt":2100.635000009788,"stimulus":"audio/actual/s9-imitation-10_jean_saigne_beaucoup-4_cut1norm.mp3","button_pressed":"0","test_part":"test","phrase":"10","condition":"imitation","subject":"s9","trial_type":"audio-button-response","trial_index":20,"time_elapsed":73287,"internal_node_id":"0.0-1.0-0.8"},{"rt":3056.879999989178,"stimulus":"audio/actual/s6-guide-10_jean_saigne_beaucoup.mp3","button_pressed":"1","test_part":"test","phrase":"10","condition":"guide","subject":"s6","trial_type":"audio-button-response","trial_index":22,"time_elapsed":76775,"internal_node_id":"0.0-1.0-0.9"},{"rt":3621.8250000092667,"stimulus":"audio/actual/s1-lecture-10_jean_saigne_beaucoup-2_cut1norm.mp3","button_pressed":"0","test_part":"test","phrase":"10","condition":"lecture","subject":"s1","trial_type":"audio-button-response","trial_index":24,"time_elapsed":80850,"internal_node_id":"0.0-1.0-0.10"},{"rt":1805.5900000035763,"stimulus":"audio/actual/s2-imitation-10bis_jenseigne_beaucoup-5_cut1norm.mp3","button_pressed":"1","test_part":"test","phrase":"10bis","condition":"imitation","subject":"s2","trial_type":"audio-button-response","trial_index":26,"time_elapsed":83815,"internal_node_id":"0.0-1.0-0.11"},{"rt":2867.064999998547,"stimulus":"audio/actual/s1-blind-10_jean_saigne_beaucoup.mp3","button_pressed":"0","test_part":"test","phrase":"10","condition":"blind","subject":"s1","trial_type":"audio-button-response","trial_index":28,"time_elapsed":87260,"internal_node_id":"0.0-1.0-0.12"},{"rt":1853.4050000016578,"stimulus":"audio/actual/s8-blind-10bis_jenseigne_beaucoup.mp3","button_pressed":"1","test_part":"test","phrase":"10bis","condition":"blind","subject":"s8","trial_type":"audio-button-response","trial_index":30,"time_elapsed":89319,"internal_node_id":"0.0-1.0-0.13"},{"rt":2110.545000003185,"stimulus":"audio/actual/s10-imitation-10_jean_saigne_beaucoup-11_cut1norm.mp3","button_pressed":"0","test_part":"test","phrase":"10","condition":"imitation","subject":"s10","trial_type":"audio-button-response","trial_index":32,"time_elapsed":91954,"internal_node_id":"0.0-1.0-0.14"},{"rt":1918.8049999938812,"stimulus":"audio/actual/s3-imitation-10_jean_saigne_beaucoup-2_cut1norm.mp3","button_pressed":"0","test_part":"test","phrase":"10","condition":"imitation","subject":"s3","trial_type":"audio-button-response","trial_index":34,"time_elapsed":94332,"internal_node_id":"0.0-1.0-0.15"},{"rt":5691.904999985127,"stimulus":"audio/actual/s10-blind-10_jean_saigne_beaucoup.mp3","button_pressed":"2","test_part":"test","phrase":"10","condition":"blind","subject":"s10","trial_type":"audio-button-response","trial_index":36,"time_elapsed":100408,"internal_node_id":"0.0-1.0-0.16"},{"rt":6840.105000010226,"stimulus":"audio/actual/s10-blind-10_jean_saigne_beaucoup.mp3","button_pressed":"0","test_part":"test","phrase":"10","condition":"blind","subject":"s10","trial_type":"audio-button-response","trial_index":37,"time_elapsed":107250,"internal_node_id":"0.0-1.0-1.16-0.16"},{"rt":2557.3250000015832,"stimulus":"audio/actual/s2-imitation-10_jean_saigne_beaucoup-4_cut1norm.mp3","button_pressed":"0","test_part":"test","phrase":"10","condition":"imitation","subject":"s2","trial_type":"audio-button-response","trial_index":39,"time_elapsed":111122,"internal_node_id":"0.0-1.0-0.17"},{"rt":1843.7550000089686,"stimulus":"audio/actual/s8-lecture-10bis_jenseigne_beaucoup-11_cut1norm.mp3","button_pressed":"1","test_part":"test","phrase":"10bis","condition":"lecture","subject":"s8","trial_type":"audio-button-response","trial_index":41,"time_elapsed":113404,"internal_node_id":"0.0-1.0-0.18"},{"rt":4291.794999997364,"stimulus":"audio/actual/s10-guide-10bis_jenseigne_beaucoup.mp3","button_pressed":"2","test_part":"test","phrase":"10bis","condition":"guide","subject":"s10","trial_type":"audio-button-response","trial_index":43,"time_elapsed":118123,"internal_node_id":"0.0-1.0-0.19"},{"rt":3012.8200000035577,"stimulus":"audio/actual/s10-guide-10bis_jenseigne_beaucoup.mp3","button_pressed":"1","test_part":"test","phrase":"10bis","condition":"guide","subject":"s10","trial_type":"audio-button-response","trial_index":44,"time_elapsed":121138,"internal_node_id":"0.0-1.0-1.19-0.19"},{"rt":1759.1499999980442,"stimulus":"audio/actual/s2-guide-10bis_jenseigne_beaucoup.mp3","button_pressed":"1","test_part":"test","phrase":"10bis","condition":"guide","subject":"s2","trial_type":"audio-button-response","trial_index":46,"time_elapsed":123836,"internal_node_id":"0.0-1.0-0.20"},{"rt":1613.069999992149,"stimulus":"audio/actual/s5-blind-10_jean_saigne_beaucoup.mp3","button_pressed":"0","test_part":"test","phrase":"10","condition":"blind","subject":"s5","trial_type":"audio-button-response","trial_index":48,"time_elapsed":125842,"internal_node_id":"0.0-1.0-0.21"},{"rt":1775.244999997085,"stimulus":"audio/actual/s7-blind-10bis_jenseigne_beaucoup.mp3","button_pressed":"1","test_part":"test","phrase":"10bis","condition":"blind","subject":"s7","trial_type":"audio-button-response","trial_index":50,"time_elapsed":127954,"internal_node_id":"0.0-1.0-0.22"},{"rt":2197.9100000171456,"stimulus":"audio/actual/s4-guide-10bis_jenseigne_beaucoup.mp3","button_pressed":"0","test_part":"test","phrase":"10bis","condition":"guide","subject":"s4","trial_type":"audio-button-response","trial_index":52,"time_elapsed":130492,"internal_node_id":"0.0-1.0-0.23"},{"rt":1982.449999981327,"stimulus":"audio/actual/s9-lecture-10bis_jenseigne_beaucoup-2_cut1norm.mp3","button_pressed":"0","test_part":"test","phrase":"10bis","condition":"lecture","subject":"s9","trial_type":"audio-button-response","trial_index":54,"time_elapsed":132839,"internal_node_id":"0.0-1.0-0.24"},{"rt":2887.4199999845587,"stimulus":"audio/actual/s5-blind-10bis_jenseigne_beaucoup.mp3","button_pressed":"1","test_part":"test","phrase":"10bis","condition":"blind","subject":"s5","trial_type":"audio-button-response","trial_index":56,"time_elapsed":136093,"internal_node_id":"0.0-1.0-0.25"},{"rt":2883.5399999807123,"stimulus":"audio/actual/s1-blind-10bis_jenseigne_beaucoup.mp3","button_pressed":"0","test_part":"test","phrase":"10bis","condition":"blind","subject":"s1","trial_type":"audio-button-response","trial_index":58,"time_elapsed":140114,"internal_node_id":"0.0-1.0-0.26"},{"rt":2047.3799999745097,"stimulus":"audio/actual/s8-lecture-10_jean_saigne_beaucoup-10_cut1norm.mp3","button_pressed":"0","test_part":"test","phrase":"10","condition":"lecture","subject":"s8","trial_type":"audio-button-response","trial_index":60,"time_elapsed":142663,"internal_node_id":"0.0-1.0-0.27"},{"rt":1825.955000007525,"stimulus":"audio/actual/s10-imitation-10bis_jenseigne_beaucoup-10_cut1norm.mp3","button_pressed":"1","test_part":"test","phrase":"10bis","condition":"imitation","subject":"s10","trial_type":"audio-button-response","trial_index":62,"time_elapsed":144860,"internal_node_id":"0.0-1.0-0.28"},{"rt":2093.0249999801163,"stimulus":"audio/actual/s2-lecture-10_jean_saigne_beaucoup-7_cut1norm.mp3","button_pressed":"0","test_part":"test","phrase":"10","condition":"lecture","subject":"s2","trial_type":"audio-button-response","trial_index":64,"time_elapsed":147260,"internal_node_id":"0.0-1.0-0.29"},{"rt":2945.9499999939,"stimulus":"audio/actual/s6-blind-10bis_jenseigne_beaucoup.mp3","button_pressed":"0","test_part":"test","phrase":"10bis","condition":"blind","subject":"s6","trial_type":"audio-button-response","trial_index":66,"time_elapsed":150504,"internal_node_id":"0.0-1.0-0.30"},{"rt":1822.199999995064,"stimulus":"audio/actual/s7-lecture-10bis_jenseigne_beaucoup-9_cut1norm.mp3","button_pressed":"1","test_part":"test","phrase":"10bis","condition":"lecture","subject":"s7","trial_type":"audio-button-response","trial_index":68,"time_elapsed":152658,"internal_node_id":"0.0-1.0-0.31"},{"rt":2646.5749999915715,"stimulus":"audio/actual/s3-blind-10_jean_saigne_beaucoup.mp3","button_pressed":"0","test_part":"test","phrase":"10","condition":"blind","subject":"s3","trial_type":"audio-button-response","trial_index":70,"time_elapsed":155634,"internal_node_id":"0.0-1.0-0.32"},{"rt":2447.7899999765214,"stimulus":"audio/actual/s9-lecture-10_jean_saigne_beaucoup-3_cut1norm.mp3","button_pressed":"0","test_part":"test","phrase":"10","condition":"lecture","subject":"s9","trial_type":"audio-button-response","trial_index":72,"time_elapsed":158429,"internal_node_id":"0.0-1.0-0.33"},{"rt":2873.1900000129826,"stimulus":"audio/actual/s6-imitation-10_jean_saigne_beaucoup-5_cut1norm.mp3","button_pressed":"0","test_part":"test","phrase":"10","condition":"imitation","subject":"s6","trial_type":"audio-button-response","trial_index":74,"time_elapsed":161809,"internal_node_id":"0.0-1.0-0.34"},{"rt":1610.244999988936,"stimulus":"audio/actual/s9-guide-10bis_jenseigne_beaucoup.mp3","button_pressed":"1","test_part":"test","phrase":"10bis","condition":"guide","subject":"s9","trial_type":"audio-button-response","trial_index":76,"time_elapsed":163754,"internal_node_id":"0.0-1.0-0.35"},{"rt":3151.270000002114,"stimulus":"audio/actual/s3-blind-10bis_jenseigne_beaucoup.mp3","button_pressed":"2","test_part":"test","phrase":"10bis","condition":"blind","subject":"s3","trial_type":"audio-button-response","trial_index":78,"time_elapsed":167355,"internal_node_id":"0.0-1.0-0.36"},{"rt":2504.73499999498,"stimulus":"audio/actual/s3-blind-10bis_jenseigne_beaucoup.mp3","button_pressed":"1","test_part":"test","phrase":"10bis","condition":"blind","subject":"s3","trial_type":"audio-button-response","trial_index":79,"time_elapsed":169862,"internal_node_id":"0.0-1.0-1.36-0.36"},{"rt":2467.6850000105333,"stimulus":"audio/actual/s5-imitation-10_jean_saigne_beaucoup-10_cut1norm.mp3","button_pressed":"0","test_part":"test","phrase":"10","condition":"imitation","subject":"s5","trial_type":"audio-button-response","trial_index":81,"time_elapsed":172902,"internal_node_id":"0.0-1.0-0.37"},{"rt":2613.389999984065,"stimulus":"audio/actual/s3-guide-10bis_jenseigne_beaucoup.mp3","button_pressed":"2","test_part":"test","phrase":"10bis","condition":"guide","subject":"s3","trial_type":"audio-button-response","trial_index":83,"time_elapsed":237333,"internal_node_id":"0.0-1.0-0.38"},{"rt":1694.9250000179745,"stimulus":"audio/actual/s3-guide-10bis_jenseigne_beaucoup.mp3","button_pressed":"1","test_part":"test","phrase":"10bis","condition":"guide","subject":"s3","trial_type":"audio-button-response","trial_index":84,"time_elapsed":239029,"internal_node_id":"0.0-1.0-1.38-0.38"},{"rt":1984.5450000138953,"stimulus":"audio/actual/s1-imitation-10_jean_saigne_beaucoup-11_cut1norm.mp3","button_pressed":"0","test_part":"test","phrase":"10","condition":"imitation","subject":"s1","trial_type":"audio-button-response","trial_index":86,"time_elapsed":241440,"internal_node_id":"0.0-1.0-0.39"},{"rt":1914.1850000014529,"stimulus":"audio/actual/s2-blind-10_jean_saigne_beaucoup.mp3","button_pressed":"1","test_part":"test","phrase":"10","condition":"blind","subject":"s2","trial_type":"audio-button-response","trial_index":88,"time_elapsed":243680,"internal_node_id":"0.0-1.0-0.40"},{"rt":2365.955000015674,"stimulus":"audio/actual/s1-guide-10_jean_saigne_beaucoup.mp3","button_pressed":"0","test_part":"test","phrase":"10","condition":"guide","subject":"s1","trial_type":"audio-button-response","trial_index":90,"time_elapsed":246325,"internal_node_id":"0.0-1.0-0.41"},{"rt":2350.2600000065286,"stimulus":"audio/actual/s3-lecture-10_jean_saigne_beaucoup-2_cut1norm.mp3","button_pressed":"0","test_part":"test","phrase":"10","condition":"lecture","subject":"s3","trial_type":"audio-button-response","trial_index":92,"time_elapsed":249045,"internal_node_id":"0.0-1.0-0.42"},{"rt":1516.4249999797903,"stimulus":"audio/actual/s4-imitation-10bis_jenseigne_beaucoup-0_cut1norm.mp3","button_pressed":"1","test_part":"test","phrase":"10bis","condition":"imitation","subject":"s4","trial_type":"audio-button-response","trial_index":94,"time_elapsed":250890,"internal_node_id":"0.0-1.0-0.43"},{"rt":1781.5199999895412,"stimulus":"audio/actual/s8-guide-10_jean_saigne_beaucoup.mp3","button_pressed":"0","test_part":"test","phrase":"10","condition":"guide","subject":"s8","trial_type":"audio-button-response","trial_index":96,"time_elapsed":253013,"internal_node_id":"0.0-1.0-0.44"},{"rt":1447.7550000010524,"stimulus":"audio/actual/s6-imitation-10bis_jenseigne_beaucoup-4_cut1norm.mp3","button_pressed":"1","test_part":"test","phrase":"10bis","condition":"imitation","subject":"s6","trial_type":"audio-button-response","trial_index":98,"time_elapsed":255029,"internal_node_id":"0.0-1.0-0.45"},{"rt":1768.2999999960884,"stimulus":"audio/actual/s3-imitation-10bis_jenseigne_beaucoup-3_cut1norm.mp3","button_pressed":"1","test_part":"test","phrase":"10bis","condition":"imitation","subject":"s3","trial_type":"audio-button-response","trial_index":100,"time_elapsed":257087,"internal_node_id":"0.0-1.0-0.46"},{"rt":1487.6300000178162,"stimulus":"audio/actual/s5-guide-10bis_jenseigne_beaucoup.mp3","button_pressed":"1","test_part":"test","phrase":"10bis","condition":"guide","subject":"s5","trial_type":"audio-button-response","trial_index":102,"time_elapsed":258869,"internal_node_id":"0.0-1.0-0.47"},{"rt":1727.2549999761395,"stimulus":"audio/actual/s10-lecture-10_jean_saigne_beaucoup-10_cut1norm.mp3","button_pressed":"1","test_part":"test","phrase":"10","condition":"lecture","subject":"s10","trial_type":"audio-button-response","trial_index":104,"time_elapsed":261045,"internal_node_id":"0.0-1.0-0.48"},{"rt":1972.4550000100862,"stimulus":"audio/actual/s4-lecture-10_jean_saigne_beaucoup-1_cut1norm.mp3","button_pressed":"0","test_part":"test","phrase":"10","condition":"lecture","subject":"s4","trial_type":"audio-button-response","trial_index":106,"time_elapsed":263328,"internal_node_id":"0.0-1.0-0.49"},{"rt":2181.024999998044,"stimulus":"audio/actual/s6-lecture-10_jean_saigne_beaucoup-1_cut1norm.mp3","button_pressed":"0","test_part":"test","phrase":"10","condition":"lecture","subject":"s6","trial_type":"audio-button-response","trial_index":108,"time_elapsed":265813,"internal_node_id":"0.0-1.0-0.50"},{"rt":2172.6249999774154,"stimulus":"audio/actual/s4-imitation-10_jean_saigne_beaucoup-1_cut1norm.mp3","button_pressed":"0","test_part":"test","phrase":"10","condition":"imitation","subject":"s4","trial_type":"audio-button-response","trial_index":110,"time_elapsed":268288,"internal_node_id":"0.0-1.0-0.51"},{"rt":1718.5649999883026,"stimulus":"audio/actual/s3-lecture-10bis_jenseigne_beaucoup-3_cut1norm.mp3","button_pressed":"1","test_part":"test","phrase":"10bis","condition":"lecture","subject":"s3","trial_type":"audio-button-response","trial_index":112,"time_elapsed":270207,"internal_node_id":"0.0-1.0-0.52"},{"rt":2438.350000011269,"stimulus":"audio/actual/s2-lecture-10bis_jenseigne_beaucoup-6_cut1norm.mp3","button_pressed":"1","test_part":"test","phrase":"10bis","condition":"lecture","subject":"s2","trial_type":"audio-button-response","trial_index":114,"time_elapsed":272842,"internal_node_id":"0.0-1.0-0.53"},{"rt":2632.6549999939743,"stimulus":"audio/actual/s6-guide-10bis_jenseigne_beaucoup.mp3","button_pressed":"1","test_part":"test","phrase":"10bis","condition":"guide","subject":"s6","trial_type":"audio-button-response","trial_index":116,"time_elapsed":275861,"internal_node_id":"0.0-1.0-0.54"},{"rt":1767.7150000235997,"stimulus":"audio/actual/s5-lecture-10bis_jenseigne_beaucoup-4_cut1norm.mp3","button_pressed":"1","test_part":"test","phrase":"10bis","condition":"lecture","subject":"s5","trial_type":"audio-button-response","trial_index":118,"time_elapsed":278058,"internal_node_id":"0.0-1.0-0.55"},{"rt":1595.8300000056624,"stimulus":"audio/actual/s7-imitation-10bis_jenseigne_beaucoup-2_cut1norm.mp3","button_pressed":"1","test_part":"test","phrase":"10bis","condition":"imitation","subject":"s7","trial_type":"audio-button-response","trial_index":120,"time_elapsed":279935,"internal_node_id":"0.0-1.0-0.56"},{"rt":2020.2799999970011,"stimulus":"audio/actual/s10-lecture-10bis_jenseigne_beaucoup-11_cut1norm.mp3","button_pressed":"1","test_part":"test","phrase":"10bis","condition":"lecture","subject":"s10","trial_type":"audio-button-response","trial_index":122,"time_elapsed":282506,"internal_node_id":"0.0-1.0-0.57"},{"rt":1796.1650000070222,"stimulus":"audio/actual/s2-guide-10_jean_saigne_beaucoup.mp3","button_pressed":"0","test_part":"test","phrase":"10","condition":"guide","subject":"s2","trial_type":"audio-button-response","trial_index":124,"time_elapsed":284458,"internal_node_id":"0.0-1.0-0.58"},{"rt":1572.905000008177,"stimulus":"audio/actual/s1-imitation-10bis_jenseigne_beaucoup-10_cut1norm.mp3","button_pressed":"1","test_part":"test","phrase":"10bis","condition":"imitation","subject":"s1","trial_type":"audio-button-response","trial_index":126,"time_elapsed":286325,"internal_node_id":"0.0-1.0-0.59"},{"rt":1638.4350000007544,"stimulus":"audio/actual/s9-blind-10_jean_saigne_beaucoup.mp3","button_pressed":"0","test_part":"test","phrase":"10","condition":"blind","subject":"s9","trial_type":"audio-button-response","trial_index":128,"time_elapsed":288213,"internal_node_id":"0.0-1.0-0.60"},{"rt":2337.650000001304,"stimulus":"audio/actual/s4-lecture-10bis_jenseigne_beaucoup-0_cut1norm.mp3","button_pressed":"1","test_part":"test","phrase":"10bis","condition":"lecture","subject":"s4","trial_type":"audio-button-response","trial_index":130,"time_elapsed":290901,"internal_node_id":"0.0-1.0-0.61"},{"rt":1572.005000023637,"stimulus":"audio/actual/s7-guide-10bis_jenseigne_beaucoup.mp3","button_pressed":"1","test_part":"test","phrase":"10bis","condition":"guide","subject":"s7","trial_type":"audio-button-response","trial_index":132,"time_elapsed":292682,"internal_node_id":"0.0-1.0-0.62"},{"rt":1674.3500000156928,"stimulus":"audio/actual/s5-guide-10_jean_saigne_beaucoup.mp3","button_pressed":"0","test_part":"test","phrase":"10","condition":"guide","subject":"s5","trial_type":"audio-button-response","trial_index":134,"time_elapsed":294538,"internal_node_id":"0.0-1.0-0.63"},{"rt":1639.4399999990128,"stimulus":"audio/actual/s8-blind-10_jean_saigne_beaucoup.mp3","button_pressed":"0","test_part":"test","phrase":"10","condition":"blind","subject":"s8","trial_type":"audio-button-response","trial_index":136,"time_elapsed":296460,"internal_node_id":"0.0-1.0-0.64"},{"rt":2511.8249999941327,"stimulus":"audio/actual/s10-blind-10bis_jenseigne_beaucoup.mp3","button_pressed":"1","test_part":"test","phrase":"10bis","condition":"blind","subject":"s10","trial_type":"audio-button-response","trial_index":138,"time_elapsed":299313,"internal_node_id":"0.0-1.0-0.65"},{"rt":1793.825000000652,"stimulus":"audio/actual/s9-blind-10bis_jenseigne_beaucoup.mp3","button_pressed":"1","test_part":"test","phrase":"10bis","condition":"blind","subject":"s9","trial_type":"audio-button-response","trial_index":140,"time_elapsed":301543,"internal_node_id":"0.0-1.0-0.66"},{"rt":1497.1649999788497,"stimulus":"audio/actual/s8-imitation-10bis_jenseigne_beaucoup-11_cut1norm.mp3","button_pressed":"1","test_part":"test","phrase":"10bis","condition":"imitation","subject":"s8","trial_type":"audio-button-response","trial_index":142,"time_elapsed":303388,"internal_node_id":"0.0-1.0-0.67"},{"rt":1538.9800000120886,"stimulus":"audio/actual/s7-imitation-10_jean_saigne_beaucoup-3_cut1norm.mp3","button_pressed":"0","test_part":"test","phrase":"10","condition":"imitation","subject":"s7","trial_type":"audio-button-response","trial_index":144,"time_elapsed":305201,"internal_node_id":"0.0-1.0-0.68"},{"rt":3126.994999998715,"stimulus":"audio/actual/s10-guide-10_jean_saigne_beaucoup.mp3","button_pressed":"0","test_part":"test","phrase":"10","condition":"guide","subject":"s10","trial_type":"audio-button-response","trial_index":146,"time_elapsed":308636,"internal_node_id":"0.0-1.0-0.69"},{"rt":1488.4299999976065,"stimulus":"audio/actual/s7-guide-10_jean_saigne_beaucoup.mp3","button_pressed":"0","test_part":"test","phrase":"10","condition":"guide","subject":"s7","trial_type":"audio-button-response","trial_index":148,"time_elapsed":310535,"internal_node_id":"0.0-1.0-0.70"},{"rt":2047.9599999962375,"stimulus":"audio/actual/s5-lecture-10_jean_saigne_beaucoup-5_cut1norm.mp3","button_pressed":"0","test_part":"test","phrase":"10","condition":"lecture","subject":"s5","trial_type":"audio-button-response","trial_index":150,"time_elapsed":312914,"internal_node_id":"0.0-1.0-0.71"},{"rt":2661.3650000072084,"stimulus":"audio/actual/s3-guide-10_jean_saigne_beaucoup.mp3","button_pressed":"0","test_part":"test","phrase":"10","condition":"guide","subject":"s3","trial_type":"audio-button-response","trial_index":152,"time_elapsed":315836,"internal_node_id":"0.0-1.0-0.72"},{"rt":1922.4450000037905,"stimulus":"audio/actual/s8-imitation-10_jean_saigne_beaucoup-10_cut1norm.mp3","button_pressed":"0","test_part":"test","phrase":"10","condition":"imitation","subject":"s8","trial_type":"audio-button-response","trial_index":154,"time_elapsed":318034,"internal_node_id":"0.0-1.0-0.73"},{"rt":4168.999999994412,"stimulus":"audio/actual/s4-guide-10_jean_saigne_beaucoup.mp3","button_pressed":"2","test_part":"test","phrase":"10","condition":"guide","subject":"s4","trial_type":"audio-button-response","trial_index":156,"time_elapsed":322716,"internal_node_id":"0.0-1.0-0.74"},{"rt":4168.309999979101,"stimulus":"audio/actual/s4-guide-10_jean_saigne_beaucoup.mp3","button_pressed":"1","test_part":"test","phrase":"10","condition":"guide","subject":"s4","trial_type":"audio-button-response","trial_index":157,"time_elapsed":326886,"internal_node_id":"0.0-1.0-1.74-0.74"},{"rt":1454.0100000158418,"stimulus":"audio/actual/s8-guide-10bis_jenseigne_beaucoup.mp3","button_pressed":"1","test_part":"test","phrase":"10bis","condition":"guide","subject":"s8","trial_type":"audio-button-response","trial_index":159,"time_elapsed":328914,"internal_node_id":"0.0-1.0-0.75"},{"rt":2381.485000019893,"stimulus":"audio/actual/s4-blind-10bis_jenseigne_beaucoup.mp3","button_pressed":"1","test_part":"test","phrase":"10bis","condition":"blind","subject":"s4","trial_type":"audio-button-response","trial_index":161,"time_elapsed":331708,"internal_node_id":"0.0-1.0-0.76"},{"rt":1694.1850000002887,"stimulus":"audio/actual/s9-imitation-10bis_jenseigne_beaucoup-5_cut1norm.mp3","button_pressed":"1","test_part":"test","phrase":"10bis","condition":"imitation","subject":"s9","trial_type":"audio-button-response","trial_index":163,"time_elapsed":333671,"internal_node_id":"0.0-1.0-0.77"},{"rt":4890.9050000074785,"stimulus":"audio/actual/s4-blind-10_jean_saigne_beaucoup.mp3","button_pressed":"0","test_part":"test","phrase":"10","condition":"blind","subject":"s4","trial_type":"audio-button-response","trial_index":165,"time_elapsed":338876,"internal_node_id":"0.0-1.0-0.78"},{"rt":1874.7050000238232,"stimulus":"audio/actual/s7-blind-10_jean_saigne_beaucoup.mp3","button_pressed":"0","test_part":"test","phrase":"10","condition":"blind","subject":"s7","trial_type":"audio-button-response","trial_index":167,"time_elapsed":341084,"internal_node_id":"0.0-1.0-0.79"}]