[{"rt":5549,"stimulus":"audio/actual/s4-guide-10_jean_saigne_beaucoup.mp3","button_pressed":"1","test_part":"test","phrase":"10","condition":"guide","subject":"s4","trial_type":"audio-button-response","trial_index":1,"time_elapsed":9459,"internal_node_id":"0.0-1.0-0.0"},{"rt":2685,"stimulus":"audio/actual/s9-guide-10_jean_saigne_beaucoup.mp3","button_pressed":"0","test_part":"test","phrase":"10","condition":"guide","subject":"s9","trial_type":"audio-button-response","trial_index":3,"time_elapsed":13755,"internal_node_id":"0.0-1.0-0.1"},{"rt":1795,"stimulus":"audio/actual/s8-imitation-10bis_jenseigne_beaucoup-11_cut1norm.mp3","button_pressed":"1","test_part":"test","phrase":"10bis","condition":"imitation","subject":"s8","trial_type":"audio-button-response","trial_index":5,"time_elapsed":16521,"internal_node_id":"0.0-1.0-0.2"},{"rt":4169,"stimulus":"audio/actual/s2-blind-10_jean_saigne_beaucoup.mp3","button_pressed":"0","test_part":"test","phrase":"10","condition":"blind","subject":"s2","trial_type":"audio-button-response","trial_index":7,"time_elapsed":21706,"internal_node_id":"0.0-1.0-0.3"},{"rt":5513,"stimulus":"audio/actual/s9-guide-10bis_jenseigne_beaucoup.mp3","button_pressed":"1","test_part":"test","phrase":"10bis","condition":"guide","subject":"s9","trial_type":"audio-button-response","trial_index":9,"time_elapsed":28184,"internal_node_id":"0.0-1.0-0.4"},{"rt":2712,"stimulus":"audio/actual/s2-lecture-10_jean_saigne_beaucoup-7_cut1norm.mp3","button_pressed":"0","test_part":"test","phrase":"10","condition":"lecture","subject":"s2","trial_type":"audio-button-response","trial_index":11,"time_elapsed":31889,"internal_node_id":"0.0-1.0-0.5"},{"rt":4012,"stimulus":"audio/actual/s3-imitation-10bis_jenseigne_beaucoup-3_cut1norm.mp3","button_pressed":"1","test_part":"test","phrase":"10bis","condition":"imitation","subject":"s3","trial_type":"audio-button-response","trial_index":13,"time_elapsed":36918,"internal_node_id":"0.0-1.0-0.6"},{"rt":3309,"stimulus":"audio/actual/s10-blind-10bis_jenseigne_beaucoup.mp3","button_pressed":"0","test_part":"test","phrase":"10bis","condition":"blind","subject":"s10","trial_type":"audio-button-response","trial_index":15,"time_elapsed":41077,"internal_node_id":"0.0-1.0-0.7"},{"rt":2233,"stimulus":"audio/actual/s7-lecture-10_jean_saigne_beaucoup-8_cut1norm.mp3","button_pressed":"0","test_part":"test","phrase":"10","condition":"lecture","subject":"s7","trial_type":"audio-button-response","trial_index":17,"time_elapsed":44678,"internal_node_id":"0.0-1.0-0.8"},{"rt":1830,"stimulus":"audio/actual/s8-lecture-10_jean_saigne_beaucoup-10_cut1norm.mp3","button_pressed":"0","test_part":"test","phrase":"10","condition":"lecture","subject":"s8","trial_type":"audio-button-response","trial_index":19,"time_elapsed":47416,"internal_node_id":"0.0-1.0-0.9"},{"rt":2854,"stimulus":"audio/actual/s4-imitation-10bis_jenseigne_beaucoup-0_cut1norm.mp3","button_pressed":"1","test_part":"test","phrase":"10bis","condition":"imitation","subject":"s4","trial_type":"audio-button-response","trial_index":21,"time_elapsed":50774,"internal_node_id":"0.0-1.0-0.10"},{"rt":2717,"stimulus":"audio/actual/s3-imitation-10_jean_saigne_beaucoup-2_cut1norm.mp3","button_pressed":"0","test_part":"test","phrase":"10","condition":"imitation","subject":"s3","trial_type":"audio-button-response","trial_index":23,"time_elapsed":54197,"internal_node_id":"0.0-1.0-0.11"},{"rt":2696,"stimulus":"audio/actual/s6-lecture-10_jean_saigne_beaucoup-1_cut1norm.mp3","button_pressed":"0","test_part":"test","phrase":"10","condition":"lecture","subject":"s6","trial_type":"audio-button-response","trial_index":25,"time_elapsed":57647,"internal_node_id":"0.0-1.0-0.12"},{"rt":1693,"stimulus":"audio/actual/s9-blind-10bis_jenseigne_beaucoup.mp3","button_pressed":"1","test_part":"test","phrase":"10bis","condition":"blind","subject":"s9","trial_type":"audio-button-response","trial_index":27,"time_elapsed":60291,"internal_node_id":"0.0-1.0-0.13"},{"rt":2654,"stimulus":"audio/actual/s6-guide-10_jean_saigne_beaucoup.mp3","button_pressed":"0","test_part":"test","phrase":"10","condition":"guide","subject":"s6","trial_type":"audio-button-response","trial_index":29,"time_elapsed":63758,"internal_node_id":"0.0-1.0-0.14"},{"rt":1671,"stimulus":"audio/actual/s2-imitation-10bis_jenseigne_beaucoup-5_cut1norm.mp3","button_pressed":"1","test_part":"test","phrase":"10bis","condition":"imitation","subject":"s2","trial_type":"audio-button-response","trial_index":31,"time_elapsed":66145,"internal_node_id":"0.0-1.0-0.15"},{"rt":2919,"stimulus":"audio/actual/s6-imitation-10_jean_saigne_beaucoup-5_cut1norm.mp3","button_pressed":"0","test_part":"test","phrase":"10","condition":"imitation","subject":"s6","trial_type":"audio-button-response","trial_index":33,"time_elapsed":69746,"internal_node_id":"0.0-1.0-0.16"},{"rt":1982,"stimulus":"audio/actual/s8-guide-10_jean_saigne_beaucoup.mp3","button_pressed":"0","test_part":"test","phrase":"10","condition":"guide","subject":"s8","trial_type":"audio-button-response","trial_index":35,"time_elapsed":73192,"internal_node_id":"0.0-1.0-0.17"},{"rt":3235,"stimulus":"audio/actual/s10-guide-10bis_jenseigne_beaucoup.mp3","button_pressed":"1","test_part":"test","phrase":"10bis","condition":"guide","subject":"s10","trial_type":"audio-button-response","trial_index":37,"time_elapsed":77260,"internal_node_id":"0.0-1.0-0.18"},{"rt":3058,"stimulus":"audio/actual/s5-imitation-10bis_jenseigne_beaucoup-11_cut1norm.mp3","button_pressed":"1","test_part":"test","phrase":"10bis","condition":"imitation","subject":"s5","trial_type":"audio-button-response","trial_index":39,"time_elapsed":80898,"internal_node_id":"0.0-1.0-0.19"},{"rt":2630,"stimulus":"audio/actual/s8-blind-10_jean_saigne_beaucoup.mp3","button_pressed":"0","test_part":"test","phrase":"10","condition":"blind","subject":"s8","trial_type":"audio-button-response","trial_index":41,"time_elapsed":84353,"internal_node_id":"0.0-1.0-0.20"},{"rt":2620,"stimulus":"audio/actual/s4-lecture-10_jean_saigne_beaucoup-1_cut1norm.mp3","button_pressed":"0","test_part":"test","phrase":"10","condition":"lecture","subject":"s4","trial_type":"audio-button-response","trial_index":43,"time_elapsed":87646,"internal_node_id":"0.0-1.0-0.21"},{"rt":2613,"stimulus":"audio/actual/s7-lecture-10bis_jenseigne_beaucoup-9_cut1norm.mp3","button_pressed":"1","test_part":"test","phrase":"10bis","condition":"lecture","subject":"s7","trial_type":"audio-button-response","trial_index":45,"time_elapsed":90945,"internal_node_id":"0.0-1.0-0.22"},{"rt":5405,"stimulus":"audio/actual/s1-lecture-10bis_jenseigne_beaucoup-3_cut1norm.mp3","button_pressed":"1","test_part":"test","phrase":"10bis","condition":"lecture","subject":"s1","trial_type":"audio-button-response","trial_index":47,"time_elapsed":97081,"internal_node_id":"0.0-1.0-0.23"},{"rt":3236,"stimulus":"audio/actual/s4-blind-10_jean_saigne_beaucoup.mp3","button_pressed":"0","test_part":"test","phrase":"10","condition":"blind","subject":"s4","trial_type":"audio-button-response","trial_index":49,"time_elapsed":100995,"internal_node_id":"0.0-1.0-0.24"},{"rt":2281,"stimulus":"audio/actual/s1-lecture-10_jean_saigne_beaucoup-2_cut1norm.mp3","button_pressed":"1","test_part":"test","phrase":"10","condition":"lecture","subject":"s1","trial_type":"audio-button-response","trial_index":51,"time_elapsed":103928,"internal_node_id":"0.0-1.0-0.25"},{"rt":1993,"stimulus":"audio/actual/s4-lecture-10bis_jenseigne_beaucoup-0_cut1norm.mp3","button_pressed":"1","test_part":"test","phrase":"10bis","condition":"lecture","subject":"s4","trial_type":"audio-button-response","trial_index":53,"time_elapsed":106678,"internal_node_id":"0.0-1.0-0.26"},{"rt":3628,"stimulus":"audio/actual/s10-imitation-10bis_jenseigne_beaucoup-10_cut1norm.mp3","button_pressed":"0","test_part":"test","phrase":"10bis","condition":"imitation","subject":"s10","trial_type":"audio-button-response","trial_index":55,"time_elapsed":110868,"internal_node_id":"0.0-1.0-0.27"},{"rt":4045,"stimulus":"audio/actual/s1-blind-10_jean_saigne_beaucoup.mp3","button_pressed":"0","test_part":"test","phrase":"10","condition":"blind","subject":"s1","trial_type":"audio-button-response","trial_index":57,"time_elapsed":116121,"internal_node_id":"0.0-1.0-0.28"},{"rt":2755,"stimulus":"audio/actual/s8-lecture-10bis_jenseigne_beaucoup-11_cut1norm.mp3","button_pressed":"0","test_part":"test","phrase":"10bis","condition":"lecture","subject":"s8","trial_type":"audio-button-response","trial_index":59,"time_elapsed":119934,"internal_node_id":"0.0-1.0-0.29"},{"rt":1961,"stimulus":"audio/actual/s2-blind-10bis_jenseigne_beaucoup.mp3","button_pressed":"1","test_part":"test","phrase":"10bis","condition":"blind","subject":"s2","trial_type":"audio-button-response","trial_index":61,"time_elapsed":122594,"internal_node_id":"0.0-1.0-0.30"},{"rt":2154,"stimulus":"audio/actual/s7-imitation-10_jean_saigne_beaucoup-3_cut1norm.mp3","button_pressed":"0","test_part":"test","phrase":"10","condition":"imitation","subject":"s7","trial_type":"audio-button-response","trial_index":63,"time_elapsed":125543,"internal_node_id":"0.0-1.0-0.31"},{"rt":2247,"stimulus":"audio/actual/s2-imitation-10_jean_saigne_beaucoup-4_cut1norm.mp3","button_pressed":"0","test_part":"test","phrase":"10","condition":"imitation","subject":"s2","trial_type":"audio-button-response","trial_index":65,"time_elapsed":128464,"internal_node_id":"0.0-1.0-0.32"},{"rt":2715,"stimulus":"audio/actual/s3-lecture-10_jean_saigne_beaucoup-2_cut1norm.mp3","button_pressed":"0","test_part":"test","phrase":"10","condition":"lecture","subject":"s3","trial_type":"audio-button-response","trial_index":67,"time_elapsed":132240,"internal_node_id":"0.0-1.0-0.33"},{"rt":2331,"stimulus":"audio/actual/s10-lecture-10bis_jenseigne_beaucoup-11_cut1norm.mp3","button_pressed":"1","test_part":"test","phrase":"10bis","condition":"lecture","subject":"s10","trial_type":"audio-button-response","trial_index":69,"time_elapsed":135262,"internal_node_id":"0.0-1.0-0.34"},{"rt":2592,"stimulus":"audio/actual/s1-guide-10bis_jenseigne_beaucoup.mp3","button_pressed":"1","test_part":"test","phrase":"10bis","condition":"guide","subject":"s1","trial_type":"audio-button-response","trial_index":71,"time_elapsed":138821,"internal_node_id":"0.0-1.0-0.35"},{"rt":4672,"stimulus":"audio/actual/s7-blind-10_jean_saigne_beaucoup.mp3","button_pressed":"2","test_part":"test","phrase":"10","condition":"blind","subject":"s7","trial_type":"audio-button-response","trial_index":73,"time_elapsed":144182,"internal_node_id":"0.0-1.0-0.36"},{"rt":3423,"stimulus":"audio/actual/s7-blind-10_jean_saigne_beaucoup.mp3","button_pressed":"0","test_part":"test","phrase":"10","condition":"blind","subject":"s7","trial_type":"audio-button-response","trial_index":74,"time_elapsed":147607,"internal_node_id":"0.0-1.0-1.36-0.36"},{"rt":1721,"stimulus":"audio/actual/s4-guide-10bis_jenseigne_beaucoup.mp3","button_pressed":"1","test_part":"test","phrase":"10bis","condition":"guide","subject":"s4","trial_type":"audio-button-response","trial_index":76,"time_elapsed":150127,"internal_node_id":"0.0-1.0-0.37"},{"rt":2238,"stimulus":"audio/actual/s5-blind-10_jean_saigne_beaucoup.mp3","button_pressed":"0","test_part":"test","phrase":"10","condition":"blind","subject":"s5","trial_type":"audio-button-response","trial_index":78,"time_elapsed":153030,"internal_node_id":"0.0-1.0-0.38"},{"rt":2410,"stimulus":"audio/actual/s3-guide-10_jean_saigne_beaucoup.mp3","button_pressed":"0","test_part":"test","phrase":"10","condition":"guide","subject":"s3","trial_type":"audio-button-response","trial_index":80,"time_elapsed":156091,"internal_node_id":"0.0-1.0-0.39"},{"rt":1572,"stimulus":"audio/actual/s5-lecture-10bis_jenseigne_beaucoup-4_cut1norm.mp3","button_pressed":"1","test_part":"test","phrase":"10bis","condition":"lecture","subject":"s5","trial_type":"audio-button-response","trial_index":82,"time_elapsed":158284,"internal_node_id":"0.0-1.0-0.40"},{"rt":2837,"stimulus":"audio/actual/s1-blind-10bis_jenseigne_beaucoup.mp3","button_pressed":"1","test_part":"test","phrase":"10bis","condition":"blind","subject":"s1","trial_type":"audio-button-response","trial_index":84,"time_elapsed":161754,"internal_node_id":"0.0-1.0-0.41"},{"rt":2846,"stimulus":"audio/actual/s5-imitation-10_jean_saigne_beaucoup-10_cut1norm.mp3","button_pressed":"0","test_part":"test","phrase":"10","condition":"imitation","subject":"s5","trial_type":"audio-button-response","trial_index":86,"time_elapsed":165220,"internal_node_id":"0.0-1.0-0.42"},{"rt":2583,"stimulus":"audio/actual/s6-imitation-10bis_jenseigne_beaucoup-4_cut1norm.mp3","button_pressed":"2","test_part":"test","phrase":"10bis","condition":"imitation","subject":"s6","trial_type":"audio-button-response","trial_index":88,"time_elapsed":168514,"internal_node_id":"0.0-1.0-0.43"},{"rt":1756,"stimulus":"audio/actual/s6-imitation-10bis_jenseigne_beaucoup-4_cut1norm.mp3","button_pressed":"1","test_part":"test","phrase":"10bis","condition":"imitation","subject":"s6","trial_type":"audio-button-response","trial_index":89,"time_elapsed":170272,"internal_node_id":"0.0-1.0-1.43-0.43"},{"rt":1539,"stimulus":"audio/actual/s5-guide-10bis_jenseigne_beaucoup.mp3","button_pressed":"1","test_part":"test","phrase":"10bis","condition":"guide","subject":"s5","trial_type":"audio-button-response","trial_index":91,"time_elapsed":172616,"internal_node_id":"0.0-1.0-0.44"},{"rt":2924,"stimulus":"audio/actual/s4-blind-10bis_jenseigne_beaucoup.mp3","button_pressed":"1","test_part":"test","phrase":"10bis","condition":"blind","subject":"s4","trial_type":"audio-button-response","trial_index":93,"time_elapsed":176251,"internal_node_id":"0.0-1.0-0.45"},{"rt":5240,"stimulus":"audio/actual/s6-blind-10_jean_saigne_beaucoup.mp3","button_pressed":"0","test_part":"test","phrase":"10","condition":"blind","subject":"s6","trial_type":"audio-button-response","trial_index":95,"time_elapsed":182129,"internal_node_id":"0.0-1.0-0.46"},{"rt":2153,"stimulus":"audio/actual/s9-lecture-10_jean_saigne_beaucoup-3_cut1norm.mp3","button_pressed":"0","test_part":"test","phrase":"10","condition":"lecture","subject":"s9","trial_type":"audio-button-response","trial_index":97,"time_elapsed":184895,"internal_node_id":"0.0-1.0-0.47"},{"rt":1994,"stimulus":"audio/actual/s6-guide-10bis_jenseigne_beaucoup.mp3","button_pressed":"2","test_part":"test","phrase":"10bis","condition":"guide","subject":"s6","trial_type":"audio-button-response","trial_index":99,"time_elapsed":187410,"internal_node_id":"0.0-1.0-0.48"},{"rt":2606,"stimulus":"audio/actual/s6-guide-10bis_jenseigne_beaucoup.mp3","button_pressed":"1","test_part":"test","phrase":"10bis","condition":"guide","subject":"s6","trial_type":"audio-button-response","trial_index":100,"time_elapsed":190017,"internal_node_id":"0.0-1.0-1.48-0.48"},{"rt":2198,"stimulus":"audio/actual/s5-lecture-10_jean_saigne_beaucoup-5_cut1norm.mp3","button_pressed":"0","test_part":"test","phrase":"10","condition":"lecture","subject":"s5","trial_type":"audio-button-response","trial_index":102,"time_elapsed":192850,"internal_node_id":"0.0-1.0-0.49"},{"rt":2134,"stimulus":"audio/actual/s6-blind-10bis_jenseigne_beaucoup.mp3","button_pressed":"0","test_part":"test","phrase":"10bis","condition":"blind","subject":"s6","trial_type":"audio-button-response","trial_index":104,"time_elapsed":199373,"internal_node_id":"0.0-1.0-0.50"},{"rt":1860,"stimulus":"audio/actual/s3-blind-10bis_jenseigne_beaucoup.mp3","button_pressed":"1","test_part":"test","phrase":"10bis","condition":"blind","subject":"s3","trial_type":"audio-button-response","trial_index":106,"time_elapsed":201679,"internal_node_id":"0.0-1.0-0.51"},{"rt":1620,"stimulus":"audio/actual/s2-guide-10bis_jenseigne_beaucoup.mp3","button_pressed":"0","test_part":"test","phrase":"10bis","condition":"guide","subject":"s2","trial_type":"audio-button-response","trial_index":108,"time_elapsed":203937,"internal_node_id":"0.0-1.0-0.52"},{"rt":1527,"stimulus":"audio/actual/s9-imitation-10bis_jenseigne_beaucoup-5_cut1norm.mp3","button_pressed":"1","test_part":"test","phrase":"10bis","condition":"imitation","subject":"s9","trial_type":"audio-button-response","trial_index":110,"time_elapsed":205984,"internal_node_id":"0.0-1.0-0.53"},{"rt":1712,"stimulus":"audio/actual/s10-imitation-10_jean_saigne_beaucoup-11_cut1norm.mp3","button_pressed":"0","test_part":"test","phrase":"10","condition":"imitation","subject":"s10","trial_type":"audio-button-response","trial_index":112,"time_elapsed":208436,"internal_node_id":"0.0-1.0-0.54"},{"rt":3326,"stimulus":"audio/actual/s7-guide-10_jean_saigne_beaucoup.mp3","button_pressed":"0","test_part":"test","phrase":"10","condition":"guide","subject":"s7","trial_type":"audio-button-response","trial_index":114,"time_elapsed":212793,"internal_node_id":"0.0-1.0-0.55"},{"rt":1960,"stimulus":"audio/actual/s3-lecture-10bis_jenseigne_beaucoup-3_cut1norm.mp3","button_pressed":"1","test_part":"test","phrase":"10bis","condition":"lecture","subject":"s3","trial_type":"audio-button-response","trial_index":116,"time_elapsed":215339,"internal_node_id":"0.0-1.0-0.56"},{"rt":2946,"stimulus":"audio/actual/s2-guide-10_jean_saigne_beaucoup.mp3","button_pressed":"0","test_part":"test","phrase":"10","condition":"guide","subject":"s2","trial_type":"audio-button-response","trial_index":118,"time_elapsed":218766,"internal_node_id":"0.0-1.0-0.57"},{"rt":2027,"stimulus":"audio/actual/s9-blind-10_jean_saigne_beaucoup.mp3","button_pressed":"0","test_part":"test","phrase":"10","condition":"blind","subject":"s9","trial_type":"audio-button-response","trial_index":120,"time_elapsed":221422,"internal_node_id":"0.0-1.0-0.58"},{"rt":3853,"stimulus":"audio/actual/s10-blind-10_jean_saigne_beaucoup.mp3","button_pressed":"0","test_part":"test","phrase":"10","condition":"blind","subject":"s10","trial_type":"audio-button-response","trial_index":122,"time_elapsed":226175,"internal_node_id":"0.0-1.0-0.59"},{"rt":1688,"stimulus":"audio/actual/s8-blind-10bis_jenseigne_beaucoup.mp3","button_pressed":"1","test_part":"test","phrase":"10bis","condition":"blind","subject":"s8","trial_type":"audio-button-response","trial_index":124,"time_elapsed":228558,"internal_node_id":"0.0-1.0-0.60"},{"rt":2830,"stimulus":"audio/actual/s3-blind-10_jean_saigne_beaucoup.mp3","button_pressed":"0","test_part":"test","phrase":"10","condition":"blind","subject":"s3","trial_type":"audio-button-response","trial_index":126,"time_elapsed":232028,"internal_node_id":"0.0-1.0-0.61"},{"rt":3242,"stimulus":"audio/actual/s10-lecture-10_jean_saigne_beaucoup-10_cut1norm.mp3","button_pressed":"0","test_part":"test","phrase":"10","condition":"lecture","subject":"s10","trial_type":"audio-button-response","trial_index":128,"time_elapsed":236462,"internal_node_id":"0.0-1.0-0.62"},{"rt":1505,"stimulus":"audio/actual/s7-imitation-10bis_jenseigne_beaucoup-2_cut1norm.mp3","button_pressed":"1","test_part":"test","phrase":"10bis","condition":"imitation","subject":"s7","trial_type":"audio-button-response","trial_index":130,"time_elapsed":239345,"internal_node_id":"0.0-1.0-0.63"},{"rt":1926,"stimulus":"audio/actual/s1-guide-10_jean_saigne_beaucoup.mp3","button_pressed":"0","test_part":"test","phrase":"10","condition":"guide","subject":"s1","trial_type":"audio-button-response","trial_index":132,"time_elapsed":241917,"internal_node_id":"0.0-1.0-0.64"},{"rt":1448,"stimulus":"audio/actual/s7-guide-10bis_jenseigne_beaucoup.mp3","button_pressed":"1","test_part":"test","phrase":"10bis","condition":"guide","subject":"s7","trial_type":"audio-button-response","trial_index":134,"time_elapsed":243897,"internal_node_id":"0.0-1.0-0.65"},{"rt":2672,"stimulus":"audio/actual/s9-lecture-10bis_jenseigne_beaucoup-2_cut1norm.mp3","button_pressed":"1","test_part":"test","phrase":"10bis","condition":"lecture","subject":"s9","trial_type":"audio-button-response","trial_index":136,"time_elapsed":247089,"internal_node_id":"0.0-1.0-0.66"},{"rt":4208,"stimulus":"audio/actual/s5-guide-10_jean_saigne_beaucoup.mp3","button_pressed":"0","test_part":"test","phrase":"10","condition":"guide","subject":"s5","trial_type":"audio-button-response","trial_index":138,"time_elapsed":252239,"internal_node_id":"0.0-1.0-0.67"},{"rt":2778,"stimulus":"audio/actual/s2-lecture-10bis_jenseigne_beaucoup-6_cut1norm.mp3","button_pressed":"1","test_part":"test","phrase":"10bis","condition":"lecture","subject":"s2","trial_type":"audio-button-response","trial_index":140,"time_elapsed":255695,"internal_node_id":"0.0-1.0-0.68"},{"rt":2421,"stimulus":"audio/actual/s5-blind-10bis_jenseigne_beaucoup.mp3","button_pressed":"1","test_part":"test","phrase":"10bis","condition":"blind","subject":"s5","trial_type":"audio-button-response","trial_index":142,"time_elapsed":259012,"internal_node_id":"0.0-1.0-0.69"},{"rt":1388,"stimulus":"audio/actual/s8-imitation-10_jean_saigne_beaucoup-10_cut1norm.mp3","button_pressed":"0","test_part":"test","phrase":"10","condition":"imitation","subject":"s8","trial_type":"audio-button-response","trial_index":144,"time_elapsed":260796,"internal_node_id":"0.0-1.0-0.70"},{"rt":2097,"stimulus":"audio/actual/s6-lecture-10bis_jenseigne_beaucoup-0_cut1norm.mp3","button_pressed":"1","test_part":"test","phrase":"10bis","condition":"lecture","subject":"s6","trial_type":"audio-button-response","trial_index":146,"time_elapsed":263627,"internal_node_id":"0.0-1.0-0.71"},{"rt":3327,"stimulus":"audio/actual/s1-imitation-10_jean_saigne_beaucoup-11_cut1norm.mp3","button_pressed":"0","test_part":"test","phrase":"10","condition":"imitation","subject":"s1","trial_type":"audio-button-response","trial_index":148,"time_elapsed":267652,"internal_node_id":"0.0-1.0-0.72"},{"rt":2536,"stimulus":"audio/actual/s7-blind-10bis_jenseigne_beaucoup.mp3","button_pressed":"1","test_part":"test","phrase":"10bis","condition":"blind","subject":"s7","trial_type":"audio-button-response","trial_index":150,"time_elapsed":270847,"internal_node_id":"0.0-1.0-0.73"},{"rt":3197,"stimulus":"audio/actual/s8-guide-10bis_jenseigne_beaucoup.mp3","button_pressed":"0","test_part":"test","phrase":"10bis","condition":"guide","subject":"s8","trial_type":"audio-button-response","trial_index":152,"time_elapsed":274756,"internal_node_id":"0.0-1.0-0.74"},{"rt":3241,"stimulus":"audio/actual/s3-guide-10bis_jenseigne_beaucoup.mp3","button_pressed":"1","test_part":"test","phrase":"10bis","condition":"guide","subject":"s3","trial_type":"audio-button-response","trial_index":154,"time_elapsed":279054,"internal_node_id":"0.0-1.0-0.75"},{"rt":3289,"stimulus":"audio/actual/s4-imitation-10_jean_saigne_beaucoup-1_cut1norm.mp3","button_pressed":"0","test_part":"test","phrase":"10","condition":"imitation","subject":"s4","trial_type":"audio-button-response","trial_index":156,"time_elapsed":283040,"internal_node_id":"0.0-1.0-0.76"},{"rt":1695,"stimulus":"audio/actual/s1-imitation-10bis_jenseigne_beaucoup-10_cut1norm.mp3","button_pressed":"1","test_part":"test","phrase":"10bis","condition":"imitation","subject":"s1","trial_type":"audio-button-response","trial_index":158,"time_elapsed":285349,"internal_node_id":"0.0-1.0-0.77"},{"rt":5530,"stimulus":"audio/actual/s10-guide-10_jean_saigne_beaucoup.mp3","button_pressed":"0","test_part":"test","phrase":"10","condition":"guide","subject":"s10","trial_type":"audio-button-response","trial_index":160,"time_elapsed":291838,"internal_node_id":"0.0-1.0-0.78"},{"rt":1932,"stimulus":"audio/actual/s9-imitation-10_jean_saigne_beaucoup-4_cut1norm.mp3","button_pressed":"0","test_part":"test","phrase":"10","condition":"imitation","subject":"s9","trial_type":"audio-button-response","trial_index":162,"time_elapsed":294906,"internal_node_id":"0.0-1.0-0.79"}]