[{"rt":5771.050000097603,"stimulus":"audio/actual/s4-blind-10_jean_saigne_beaucoup.mp3","button_pressed":"2","test_part":"test","phrase":"10","condition":"blind","subject":"s4","trial_type":"audio-button-response","trial_index":1,"time_elapsed":8389,"internal_node_id":"0.0-1.0-0.0"},{"rt":3160.4649999644607,"stimulus":"audio/actual/s4-blind-10_jean_saigne_beaucoup.mp3","button_pressed":"1","test_part":"test","phrase":"10","condition":"blind","subject":"s4","trial_type":"audio-button-response","trial_index":2,"time_elapsed":11554,"internal_node_id":"0.0-1.0-1.0-0.0"},{"rt":2286.644999869168,"stimulus":"audio/actual/s8-guide-10_jean_saigne_beaucoup.mp3","button_pressed":"0","test_part":"test","phrase":"10","condition":"guide","subject":"s8","trial_type":"audio-button-response","trial_index":4,"time_elapsed":14725,"internal_node_id":"0.0-1.0-0.1"},{"rt":3098.530000075698,"stimulus":"audio/actual/s7-lecture-10_jean_saigne_beaucoup-8_cut1norm.mp3","button_pressed":"0","test_part":"test","phrase":"10","condition":"lecture","subject":"s7","trial_type":"audio-button-response","trial_index":6,"time_elapsed":18537,"internal_node_id":"0.0-1.0-0.2"},{"rt":1947.8599999565631,"stimulus":"audio/actual/s10-imitation-10bis_jenseigne_beaucoup-10_cut1norm.mp3","button_pressed":"1","test_part":"test","phrase":"10bis","condition":"imitation","subject":"s10","trial_type":"audio-button-response","trial_index":8,"time_elapsed":21086,"internal_node_id":"0.0-1.0-0.3"},{"rt":4914.9500001221895,"stimulus":"audio/actual/s6-blind-10bis_jenseigne_beaucoup.mp3","button_pressed":"0","test_part":"test","phrase":"10bis","condition":"blind","subject":"s6","trial_type":"audio-button-response","trial_index":10,"time_elapsed":26643,"internal_node_id":"0.0-1.0-0.4"},{"rt":2716.4799999445677,"stimulus":"audio/actual/s7-guide-10bis_jenseigne_beaucoup.mp3","button_pressed":"1","test_part":"test","phrase":"10bis","condition":"guide","subject":"s7","trial_type":"audio-button-response","trial_index":12,"time_elapsed":30093,"internal_node_id":"0.0-1.0-0.5"},{"rt":3023.185000056401,"stimulus":"audio/actual/s2-lecture-10_jean_saigne_beaucoup-7_cut1norm.mp3","button_pressed":"0","test_part":"test","phrase":"10","condition":"lecture","subject":"s2","trial_type":"audio-button-response","trial_index":14,"time_elapsed":33670,"internal_node_id":"0.0-1.0-0.6"},{"rt":1711.0800000373274,"stimulus":"audio/actual/s5-lecture-10bis_jenseigne_beaucoup-4_cut1norm.mp3","button_pressed":"1","test_part":"test","phrase":"10bis","condition":"lecture","subject":"s5","trial_type":"audio-button-response","trial_index":16,"time_elapsed":35898,"internal_node_id":"0.0-1.0-0.7"},{"rt":2516.689999960363,"stimulus":"audio/actual/s1-guide-10bis_jenseigne_beaucoup.mp3","button_pressed":"1","test_part":"test","phrase":"10bis","condition":"guide","subject":"s1","trial_type":"audio-button-response","trial_index":18,"time_elapsed":38962,"internal_node_id":"0.0-1.0-0.8"},{"rt":3323.3900000341237,"stimulus":"audio/actual/s9-imitation-10bis_jenseigne_beaucoup-5_cut1norm.mp3","button_pressed":"0","test_part":"test","phrase":"10bis","condition":"imitation","subject":"s9","trial_type":"audio-button-response","trial_index":20,"time_elapsed":42719,"internal_node_id":"0.0-1.0-0.9"},{"rt":4159.354999894276,"stimulus":"audio/actual/s2-blind-10bis_jenseigne_beaucoup.mp3","button_pressed":"0","test_part":"test","phrase":"10bis","condition":"blind","subject":"s2","trial_type":"audio-button-response","trial_index":22,"time_elapsed":48595,"internal_node_id":"0.0-1.0-0.10"},{"rt":3974.309999961406,"stimulus":"audio/actual/s9-lecture-10bis_jenseigne_beaucoup-2_cut1norm.mp3","button_pressed":"1","test_part":"test","phrase":"10bis","condition":"lecture","subject":"s9","trial_type":"audio-button-response","trial_index":24,"time_elapsed":53760,"internal_node_id":"0.0-1.0-0.11"},{"rt":2498.7749999854714,"stimulus":"audio/actual/s8-imitation-10_jean_saigne_beaucoup-10_cut1norm.mp3","button_pressed":"0","test_part":"test","phrase":"10","condition":"imitation","subject":"s8","trial_type":"audio-button-response","trial_index":26,"time_elapsed":56704,"internal_node_id":"0.0-1.0-0.12"},{"rt":2094.2150000482798,"stimulus":"audio/actual/s2-imitation-10_jean_saigne_beaucoup-4_cut1norm.mp3","button_pressed":"0","test_part":"test","phrase":"10","condition":"imitation","subject":"s2","trial_type":"audio-button-response","trial_index":28,"time_elapsed":59419,"internal_node_id":"0.0-1.0-0.13"},{"rt":2136.004999978468,"stimulus":"audio/actual/s5-guide-10_jean_saigne_beaucoup.mp3","button_pressed":"0","test_part":"test","phrase":"10","condition":"guide","subject":"s5","trial_type":"audio-button-response","trial_index":30,"time_elapsed":62541,"internal_node_id":"0.0-1.0-0.14"},{"rt":2496.4650000911206,"stimulus":"audio/actual/s4-blind-10bis_jenseigne_beaucoup.mp3","button_pressed":"1","test_part":"test","phrase":"10bis","condition":"blind","subject":"s4","trial_type":"audio-button-response","trial_index":32,"time_elapsed":65501,"internal_node_id":"0.0-1.0-0.15"},{"rt":2511.674999957904,"stimulus":"audio/actual/s10-guide-10bis_jenseigne_beaucoup.mp3","button_pressed":"1","test_part":"test","phrase":"10bis","condition":"guide","subject":"s10","trial_type":"audio-button-response","trial_index":34,"time_elapsed":68447,"internal_node_id":"0.0-1.0-0.16"},{"rt":2040.8449999522418,"stimulus":"audio/actual/s8-imitation-10bis_jenseigne_beaucoup-11_cut1norm.mp3","button_pressed":"1","test_part":"test","phrase":"10bis","condition":"imitation","subject":"s8","trial_type":"audio-button-response","trial_index":36,"time_elapsed":71136,"internal_node_id":"0.0-1.0-0.17"},{"rt":3080.8550000656396,"stimulus":"audio/actual/s7-blind-10bis_jenseigne_beaucoup.mp3","button_pressed":"1","test_part":"test","phrase":"10bis","condition":"blind","subject":"s7","trial_type":"audio-button-response","trial_index":38,"time_elapsed":74386,"internal_node_id":"0.0-1.0-0.18"},{"rt":2656.3500000629574,"stimulus":"audio/actual/s4-imitation-10bis_jenseigne_beaucoup-0_cut1norm.mp3","button_pressed":"1","test_part":"test","phrase":"10bis","condition":"imitation","subject":"s4","trial_type":"audio-button-response","trial_index":40,"time_elapsed":77712,"internal_node_id":"0.0-1.0-0.19"},{"rt":2940.470000030473,"stimulus":"audio/actual/s9-blind-10_jean_saigne_beaucoup.mp3","button_pressed":"0","test_part":"test","phrase":"10","condition":"blind","subject":"s9","trial_type":"audio-button-response","trial_index":42,"time_elapsed":81086,"internal_node_id":"0.0-1.0-0.20"},{"rt":2895.530000096187,"stimulus":"audio/actual/s1-guide-10_jean_saigne_beaucoup.mp3","button_pressed":"0","test_part":"test","phrase":"10","condition":"guide","subject":"s1","trial_type":"audio-button-response","trial_index":44,"time_elapsed":84471,"internal_node_id":"0.0-1.0-0.21"},{"rt":2004.465000005439,"stimulus":"audio/actual/s3-imitation-10_jean_saigne_beaucoup-2_cut1norm.mp3","button_pressed":"1","test_part":"test","phrase":"10","condition":"imitation","subject":"s3","trial_type":"audio-button-response","trial_index":46,"time_elapsed":86879,"internal_node_id":"0.0-1.0-0.22"},{"rt":3131.5549998544157,"stimulus":"audio/actual/s1-imitation-10_jean_saigne_beaucoup-11_cut1norm.mp3","button_pressed":"2","test_part":"test","phrase":"10","condition":"imitation","subject":"s1","trial_type":"audio-button-response","trial_index":48,"time_elapsed":90477,"internal_node_id":"0.0-1.0-0.23"},{"rt":1840.29999980703,"stimulus":"audio/actual/s1-imitation-10_jean_saigne_beaucoup-11_cut1norm.mp3","button_pressed":"0","test_part":"test","phrase":"10","condition":"imitation","subject":"s1","trial_type":"audio-button-response","trial_index":49,"time_elapsed":92320,"internal_node_id":"0.0-1.0-1.23-0.23"},{"rt":2792.8850001189858,"stimulus":"audio/actual/s3-lecture-10bis_jenseigne_beaucoup-3_cut1norm.mp3","button_pressed":"1","test_part":"test","phrase":"10bis","condition":"lecture","subject":"s3","trial_type":"audio-button-response","trial_index":51,"time_elapsed":136395,"internal_node_id":"0.0-1.0-0.24"},{"rt":3384.574999799952,"stimulus":"audio/actual/s6-lecture-10bis_jenseigne_beaucoup-0_cut1norm.mp3","button_pressed":"0","test_part":"test","phrase":"10bis","condition":"lecture","subject":"s6","trial_type":"audio-button-response","trial_index":53,"time_elapsed":140267,"internal_node_id":"0.0-1.0-0.25"},{"rt":2469.5749999955297,"stimulus":"audio/actual/s3-blind-10bis_jenseigne_beaucoup.mp3","button_pressed":"1","test_part":"test","phrase":"10bis","condition":"blind","subject":"s3","trial_type":"audio-button-response","trial_index":55,"time_elapsed":143362,"internal_node_id":"0.0-1.0-0.26"},{"rt":2513.5550000704825,"stimulus":"audio/actual/s1-blind-10_jean_saigne_beaucoup.mp3","button_pressed":"0","test_part":"test","phrase":"10","condition":"blind","subject":"s1","trial_type":"audio-button-response","trial_index":57,"time_elapsed":146286,"internal_node_id":"0.0-1.0-0.27"},{"rt":3300.7449998985976,"stimulus":"audio/actual/s2-lecture-10bis_jenseigne_beaucoup-6_cut1norm.mp3","button_pressed":"1","test_part":"test","phrase":"10bis","condition":"lecture","subject":"s2","trial_type":"audio-button-response","trial_index":59,"time_elapsed":150033,"internal_node_id":"0.0-1.0-0.28"},{"rt":2255.614999914542,"stimulus":"audio/actual/s5-lecture-10_jean_saigne_beaucoup-5_cut1norm.mp3","button_pressed":"0","test_part":"test","phrase":"10","condition":"lecture","subject":"s5","trial_type":"audio-button-response","trial_index":61,"time_elapsed":152738,"internal_node_id":"0.0-1.0-0.29"},{"rt":2272.0749999862164,"stimulus":"audio/actual/s8-lecture-10_jean_saigne_beaucoup-10_cut1norm.mp3","button_pressed":"0","test_part":"test","phrase":"10","condition":"lecture","subject":"s8","trial_type":"audio-button-response","trial_index":63,"time_elapsed":155374,"internal_node_id":"0.0-1.0-0.30"},{"rt":3584.105000132695,"stimulus":"audio/actual/s10-blind-10bis_jenseigne_beaucoup.mp3","button_pressed":"1","test_part":"test","phrase":"10bis","condition":"blind","subject":"s10","trial_type":"audio-button-response","trial_index":65,"time_elapsed":159396,"internal_node_id":"0.0-1.0-0.31"},{"rt":2399.5750001631677,"stimulus":"audio/actual/s5-imitation-10bis_jenseigne_beaucoup-11_cut1norm.mp3","button_pressed":"0","test_part":"test","phrase":"10bis","condition":"imitation","subject":"s5","trial_type":"audio-button-response","trial_index":67,"time_elapsed":162202,"internal_node_id":"0.0-1.0-0.32"},{"rt":2734.7550000995398,"stimulus":"audio/actual/s3-blind-10_jean_saigne_beaucoup.mp3","button_pressed":"0","test_part":"test","phrase":"10","condition":"blind","subject":"s3","trial_type":"audio-button-response","trial_index":69,"time_elapsed":165449,"internal_node_id":"0.0-1.0-0.33"},{"rt":1583.7500002235174,"stimulus":"audio/actual/s8-blind-10bis_jenseigne_beaucoup.mp3","button_pressed":"1","test_part":"test","phrase":"10bis","condition":"blind","subject":"s8","trial_type":"audio-button-response","trial_index":71,"time_elapsed":167476,"internal_node_id":"0.0-1.0-0.34"},{"rt":2232.0649998728186,"stimulus":"audio/actual/s5-blind-10_jean_saigne_beaucoup.mp3","button_pressed":"0","test_part":"test","phrase":"10","condition":"blind","subject":"s5","trial_type":"audio-button-response","trial_index":73,"time_elapsed":170134,"internal_node_id":"0.0-1.0-0.35"},{"rt":3493.724999949336,"stimulus":"audio/actual/s6-guide-10_jean_saigne_beaucoup.mp3","button_pressed":"0","test_part":"test","phrase":"10","condition":"guide","subject":"s6","trial_type":"audio-button-response","trial_index":75,"time_elapsed":173995,"internal_node_id":"0.0-1.0-0.36"},{"rt":3919.8150001466274,"stimulus":"audio/actual/s1-lecture-10bis_jenseigne_beaucoup-3_cut1norm.mp3","button_pressed":"1","test_part":"test","phrase":"10bis","condition":"lecture","subject":"s1","trial_type":"audio-button-response","trial_index":77,"time_elapsed":178292,"internal_node_id":"0.0-1.0-0.37"},{"rt":4507.539999904111,"stimulus":"audio/actual/s6-blind-10_jean_saigne_beaucoup.mp3","button_pressed":"0","test_part":"test","phrase":"10","condition":"blind","subject":"s6","trial_type":"audio-button-response","trial_index":79,"time_elapsed":183210,"internal_node_id":"0.0-1.0-0.38"},{"rt":2788.2799999788404,"stimulus":"audio/actual/s7-blind-10_jean_saigne_beaucoup.mp3","button_pressed":"0","test_part":"test","phrase":"10","condition":"blind","subject":"s7","trial_type":"audio-button-response","trial_index":81,"time_elapsed":186381,"internal_node_id":"0.0-1.0-0.39"},{"rt":2025.4849998746067,"stimulus":"audio/actual/s2-guide-10_jean_saigne_beaucoup.mp3","button_pressed":"1","test_part":"test","phrase":"10","condition":"guide","subject":"s2","trial_type":"audio-button-response","trial_index":83,"time_elapsed":188800,"internal_node_id":"0.0-1.0-0.40"},{"rt":1714.170000050217,"stimulus":"audio/actual/s7-lecture-10bis_jenseigne_beaucoup-9_cut1norm.mp3","button_pressed":"1","test_part":"test","phrase":"10bis","condition":"lecture","subject":"s7","trial_type":"audio-button-response","trial_index":85,"time_elapsed":190616,"internal_node_id":"0.0-1.0-0.41"},{"rt":2482.5299999210984,"stimulus":"audio/actual/s3-guide-10bis_jenseigne_beaucoup.mp3","button_pressed":"1","test_part":"test","phrase":"10bis","condition":"guide","subject":"s3","trial_type":"audio-button-response","trial_index":87,"time_elapsed":193524,"internal_node_id":"0.0-1.0-0.42"},{"rt":2077.8799999970943,"stimulus":"audio/actual/s9-imitation-10_jean_saigne_beaucoup-4_cut1norm.mp3","button_pressed":"0","test_part":"test","phrase":"10","condition":"imitation","subject":"s9","trial_type":"audio-button-response","trial_index":89,"time_elapsed":196049,"internal_node_id":"0.0-1.0-0.43"},{"rt":3527.324999915436,"stimulus":"audio/actual/s4-guide-10bis_jenseigne_beaucoup.mp3","button_pressed":"1","test_part":"test","phrase":"10bis","condition":"guide","subject":"s4","trial_type":"audio-button-response","trial_index":91,"time_elapsed":199948,"internal_node_id":"0.0-1.0-0.44"},{"rt":2171.695000026375,"stimulus":"audio/actual/s8-blind-10_jean_saigne_beaucoup.mp3","button_pressed":"0","test_part":"test","phrase":"10","condition":"blind","subject":"s8","trial_type":"audio-button-response","trial_index":93,"time_elapsed":202563,"internal_node_id":"0.0-1.0-0.45"},{"rt":2761.85500016436,"stimulus":"audio/actual/s6-guide-10bis_jenseigne_beaucoup.mp3","button_pressed":"1","test_part":"test","phrase":"10bis","condition":"guide","subject":"s6","trial_type":"audio-button-response","trial_index":95,"time_elapsed":205692,"internal_node_id":"0.0-1.0-0.46"},{"rt":3678.7849999964237,"stimulus":"audio/actual/s1-imitation-10bis_jenseigne_beaucoup-10_cut1norm.mp3","button_pressed":"1","test_part":"test","phrase":"10bis","condition":"imitation","subject":"s1","trial_type":"audio-button-response","trial_index":97,"time_elapsed":209820,"internal_node_id":"0.0-1.0-0.47"},{"rt":5877.429999876767,"stimulus":"audio/actual/s8-lecture-10bis_jenseigne_beaucoup-11_cut1norm.mp3","button_pressed":"2","test_part":"test","phrase":"10bis","condition":"lecture","subject":"s8","trial_type":"audio-button-response","trial_index":99,"time_elapsed":216118,"internal_node_id":"0.0-1.0-0.48"},{"rt":2231.2849999871105,"stimulus":"audio/actual/s8-lecture-10bis_jenseigne_beaucoup-11_cut1norm.mp3","button_pressed":"0","test_part":"test","phrase":"10bis","condition":"lecture","subject":"s8","trial_type":"audio-button-response","trial_index":100,"time_elapsed":218351,"internal_node_id":"0.0-1.0-1.48-0.48"},{"rt":2296.5949999634176,"stimulus":"audio/actual/s7-guide-10_jean_saigne_beaucoup.mp3","button_pressed":"0","test_part":"test","phrase":"10","condition":"guide","subject":"s7","trial_type":"audio-button-response","trial_index":102,"time_elapsed":221357,"internal_node_id":"0.0-1.0-0.49"},{"rt":2485.944999847561,"stimulus":"audio/actual/s10-blind-10_jean_saigne_beaucoup.mp3","button_pressed":"1","test_part":"test","phrase":"10","condition":"blind","subject":"s10","trial_type":"audio-button-response","trial_index":104,"time_elapsed":224336,"internal_node_id":"0.0-1.0-0.50"},{"rt":3073.4899998642504,"stimulus":"audio/actual/s3-guide-10_jean_saigne_beaucoup.mp3","button_pressed":"0","test_part":"test","phrase":"10","condition":"guide","subject":"s3","trial_type":"audio-button-response","trial_index":106,"time_elapsed":227864,"internal_node_id":"0.0-1.0-0.51"},{"rt":1978.1150000635535,"stimulus":"audio/actual/s6-imitation-10_jean_saigne_beaucoup-5_cut1norm.mp3","button_pressed":"0","test_part":"test","phrase":"10","condition":"imitation","subject":"s6","trial_type":"audio-button-response","trial_index":108,"time_elapsed":230289,"internal_node_id":"0.0-1.0-0.52"},{"rt":4791.719999862835,"stimulus":"audio/actual/s3-imitation-10bis_jenseigne_beaucoup-3_cut1norm.mp3","button_pressed":"1","test_part":"test","phrase":"10bis","condition":"imitation","subject":"s3","trial_type":"audio-button-response","trial_index":110,"time_elapsed":235512,"internal_node_id":"0.0-1.0-0.53"},{"rt":2287.250000052154,"stimulus":"audio/actual/s8-guide-10bis_jenseigne_beaucoup.mp3","button_pressed":"0","test_part":"test","phrase":"10bis","condition":"guide","subject":"s8","trial_type":"audio-button-response","trial_index":112,"time_elapsed":238008,"internal_node_id":"0.0-1.0-0.54"},{"rt":2715.5100000090897,"stimulus":"audio/actual/s3-lecture-10_jean_saigne_beaucoup-2_cut1norm.mp3","button_pressed":"0","test_part":"test","phrase":"10","condition":"lecture","subject":"s3","trial_type":"audio-button-response","trial_index":114,"time_elapsed":241086,"internal_node_id":"0.0-1.0-0.55"},{"rt":2120.2549999579787,"stimulus":"audio/actual/s4-guide-10_jean_saigne_beaucoup.mp3","button_pressed":"1","test_part":"test","phrase":"10","condition":"guide","subject":"s4","trial_type":"audio-button-response","trial_index":116,"time_elapsed":243680,"internal_node_id":"0.0-1.0-0.56"},{"rt":2082.0450000464916,"stimulus":"audio/actual/s5-blind-10bis_jenseigne_beaucoup.mp3","button_pressed":"1","test_part":"test","phrase":"10bis","condition":"blind","subject":"s5","trial_type":"audio-button-response","trial_index":118,"time_elapsed":246203,"internal_node_id":"0.0-1.0-0.57"},{"rt":2327.2099997848272,"stimulus":"audio/actual/s10-imitation-10_jean_saigne_beaucoup-11_cut1norm.mp3","button_pressed":"0","test_part":"test","phrase":"10","condition":"imitation","subject":"s10","trial_type":"audio-button-response","trial_index":120,"time_elapsed":248898,"internal_node_id":"0.0-1.0-0.58"},{"rt":3010.865000076592,"stimulus":"audio/actual/s6-lecture-10_jean_saigne_beaucoup-1_cut1norm.mp3","button_pressed":"0","test_part":"test","phrase":"10","condition":"lecture","subject":"s6","trial_type":"audio-button-response","trial_index":122,"time_elapsed":252341,"internal_node_id":"0.0-1.0-0.59"},{"rt":3609.394999919459,"stimulus":"audio/actual/s4-lecture-10bis_jenseigne_beaucoup-0_cut1norm.mp3","button_pressed":"1","test_part":"test","phrase":"10bis","condition":"lecture","subject":"s4","trial_type":"audio-button-response","trial_index":124,"time_elapsed":256441,"internal_node_id":"0.0-1.0-0.60"},{"rt":6908.090000040829,"stimulus":"audio/actual/s1-blind-10bis_jenseigne_beaucoup.mp3","button_pressed":"1","test_part":"test","phrase":"10bis","condition":"blind","subject":"s1","trial_type":"audio-button-response","trial_index":126,"time_elapsed":263789,"internal_node_id":"0.0-1.0-0.61"},{"rt":2552.3149999789894,"stimulus":"audio/actual/s7-imitation-10_jean_saigne_beaucoup-3_cut1norm.mp3","button_pressed":"0","test_part":"test","phrase":"10","condition":"imitation","subject":"s7","trial_type":"audio-button-response","trial_index":128,"time_elapsed":266953,"internal_node_id":"0.0-1.0-0.62"},{"rt":3888.844999950379,"stimulus":"audio/actual/s1-lecture-10_jean_saigne_beaucoup-2_cut1norm.mp3","button_pressed":"1","test_part":"test","phrase":"10","condition":"lecture","subject":"s1","trial_type":"audio-button-response","trial_index":130,"time_elapsed":271249,"internal_node_id":"0.0-1.0-0.63"},{"rt":2285.880000097677,"stimulus":"audio/actual/s10-guide-10_jean_saigne_beaucoup.mp3","button_pressed":"0","test_part":"test","phrase":"10","condition":"guide","subject":"s10","trial_type":"audio-button-response","trial_index":132,"time_elapsed":273966,"internal_node_id":"0.0-1.0-0.64"},{"rt":2124.8049999121577,"stimulus":"audio/actual/s9-guide-10_jean_saigne_beaucoup.mp3","button_pressed":"1","test_part":"test","phrase":"10","condition":"guide","subject":"s9","trial_type":"audio-button-response","trial_index":134,"time_elapsed":276474,"internal_node_id":"0.0-1.0-0.65"},{"rt":3322.7399999741465,"stimulus":"audio/actual/s5-guide-10bis_jenseigne_beaucoup.mp3","button_pressed":"1","test_part":"test","phrase":"10bis","condition":"guide","subject":"s5","trial_type":"audio-button-response","trial_index":136,"time_elapsed":280912,"internal_node_id":"0.0-1.0-0.66"},{"rt":7807.305000023916,"stimulus":"audio/actual/s7-imitation-10bis_jenseigne_beaucoup-2_cut1norm.mp3","button_pressed":"2","test_part":"test","phrase":"10bis","condition":"imitation","subject":"s7","trial_type":"audio-button-response","trial_index":138,"time_elapsed":298561,"internal_node_id":"0.0-1.0-0.67"},{"rt":5070.4950001090765,"stimulus":"audio/actual/s7-imitation-10bis_jenseigne_beaucoup-2_cut1norm.mp3","button_pressed":"1","test_part":"test","phrase":"10bis","condition":"imitation","subject":"s7","trial_type":"audio-button-response","trial_index":139,"time_elapsed":303635,"internal_node_id":"0.0-1.0-1.67-0.67"},{"rt":3571.07499986887,"stimulus":"audio/actual/s6-imitation-10bis_jenseigne_beaucoup-4_cut1norm.mp3","button_pressed":"1","test_part":"test","phrase":"10bis","condition":"imitation","subject":"s6","trial_type":"audio-button-response","trial_index":141,"time_elapsed":308050,"internal_node_id":"0.0-1.0-0.68"},{"rt":2153.8149998523295,"stimulus":"audio/actual/s2-imitation-10bis_jenseigne_beaucoup-5_cut1norm.mp3","button_pressed":"1","test_part":"test","phrase":"10bis","condition":"imitation","subject":"s2","trial_type":"audio-button-response","trial_index":143,"time_elapsed":310672,"internal_node_id":"0.0-1.0-0.69"},{"rt":1948.1699999887496,"stimulus":"audio/actual/s9-lecture-10_jean_saigne_beaucoup-3_cut1norm.mp3","button_pressed":"0","test_part":"test","phrase":"10","condition":"lecture","subject":"s9","trial_type":"audio-button-response","trial_index":145,"time_elapsed":312996,"internal_node_id":"0.0-1.0-0.70"},{"rt":1916.6149999946356,"stimulus":"audio/actual/s2-blind-10_jean_saigne_beaucoup.mp3","button_pressed":"0","test_part":"test","phrase":"10","condition":"blind","subject":"s2","trial_type":"audio-button-response","trial_index":147,"time_elapsed":315324,"internal_node_id":"0.0-1.0-0.71"},{"rt":1831.400000024587,"stimulus":"audio/actual/s4-imitation-10_jean_saigne_beaucoup-1_cut1norm.mp3","button_pressed":"0","test_part":"test","phrase":"10","condition":"imitation","subject":"s4","trial_type":"audio-button-response","trial_index":149,"time_elapsed":317549,"internal_node_id":"0.0-1.0-0.72"},{"rt":1615.819999948144,"stimulus":"audio/actual/s9-guide-10bis_jenseigne_beaucoup.mp3","button_pressed":"1","test_part":"test","phrase":"10bis","condition":"guide","subject":"s9","trial_type":"audio-button-response","trial_index":151,"time_elapsed":319813,"internal_node_id":"0.0-1.0-0.73"},{"rt":2108.1699999049306,"stimulus":"audio/actual/s4-lecture-10_jean_saigne_beaucoup-1_cut1norm.mp3","button_pressed":"0","test_part":"test","phrase":"10","condition":"lecture","subject":"s4","trial_type":"audio-button-response","trial_index":153,"time_elapsed":322305,"internal_node_id":"0.0-1.0-0.74"},{"rt":2479.3700000736862,"stimulus":"audio/actual/s5-imitation-10_jean_saigne_beaucoup-10_cut1norm.mp3","button_pressed":"0","test_part":"test","phrase":"10","condition":"imitation","subject":"s5","trial_type":"audio-button-response","trial_index":155,"time_elapsed":325286,"internal_node_id":"0.0-1.0-0.75"},{"rt":1711.345000192523,"stimulus":"audio/actual/s9-blind-10bis_jenseigne_beaucoup.mp3","button_pressed":"0","test_part":"test","phrase":"10bis","condition":"blind","subject":"s9","trial_type":"audio-button-response","trial_index":157,"time_elapsed":327449,"internal_node_id":"0.0-1.0-0.76"},{"rt":2470.455000177026,"stimulus":"audio/actual/s10-lecture-10bis_jenseigne_beaucoup-11_cut1norm.mp3","button_pressed":"1","test_part":"test","phrase":"10bis","condition":"lecture","subject":"s10","trial_type":"audio-button-response","trial_index":159,"time_elapsed":330328,"internal_node_id":"0.0-1.0-0.77"},{"rt":2388.560000108555,"stimulus":"audio/actual/s2-guide-10bis_jenseigne_beaucoup.mp3","button_pressed":"1","test_part":"test","phrase":"10bis","condition":"guide","subject":"s2","trial_type":"audio-button-response","trial_index":161,"time_elapsed":333186,"internal_node_id":"0.0-1.0-0.78"},{"rt":1849.3550000712276,"stimulus":"audio/actual/s10-lecture-10_jean_saigne_beaucoup-10_cut1norm.mp3","button_pressed":"1","test_part":"test","phrase":"10","condition":"lecture","subject":"s10","trial_type":"audio-button-response","trial_index":163,"time_elapsed":335527,"internal_node_id":"0.0-1.0-0.79"}]