[{"rt":3309.6000000368804,"stimulus":"audio/actual/s8-imitation-10_jean_saigne_beaucoup-10_cut1norm.mp3","button_pressed":"0","test_part":"test","phrase":"10","condition":"imitation","subject":"s8","trial_type":"audio-button-response","trial_index":1,"time_elapsed":44257,"internal_node_id":"0.0-1.0-0.0"},{"rt":3351.384999928996,"stimulus":"audio/actual/s6-imitation-10bis_jenseigne_beaucoup-4_cut1norm.mp3","button_pressed":"1","test_part":"test","phrase":"10bis","condition":"imitation","subject":"s6","trial_type":"audio-button-response","trial_index":3,"time_elapsed":51230,"internal_node_id":"0.0-1.0-0.1"},{"rt":3500.199999893084,"stimulus":"audio/actual/s8-guide-10bis_jenseigne_beaucoup.mp3","button_pressed":"1","test_part":"test","phrase":"10bis","condition":"guide","subject":"s8","trial_type":"audio-button-response","trial_index":5,"time_elapsed":55886,"internal_node_id":"0.0-1.0-0.2"},{"rt":3303.255000151694,"stimulus":"audio/actual/s6-blind-10bis_jenseigne_beaucoup.mp3","button_pressed":"0","test_part":"test","phrase":"10bis","condition":"blind","subject":"s6","trial_type":"audio-button-response","trial_index":7,"time_elapsed":60493,"internal_node_id":"0.0-1.0-0.3"},{"rt":3585.3450000286102,"stimulus":"audio/actual/s8-blind-10bis_jenseigne_beaucoup.mp3","button_pressed":"1","test_part":"test","phrase":"10bis","condition":"blind","subject":"s8","trial_type":"audio-button-response","trial_index":9,"time_elapsed":66005,"internal_node_id":"0.0-1.0-0.4"},{"rt":7897.214999888092,"stimulus":"audio/actual/s6-guide-10bis_jenseigne_beaucoup.mp3","button_pressed":"2","test_part":"test","phrase":"10bis","condition":"guide","subject":"s6","trial_type":"audio-button-response","trial_index":11,"time_elapsed":75035,"internal_node_id":"0.0-1.0-0.5"},{"rt":4787.705000024289,"stimulus":"audio/actual/s6-guide-10bis_jenseigne_beaucoup.mp3","button_pressed":"1","test_part":"test","phrase":"10bis","condition":"guide","subject":"s6","trial_type":"audio-button-response","trial_index":12,"time_elapsed":79827,"internal_node_id":"0.0-1.0-1.5-0.5"},{"rt":2764.644999988377,"stimulus":"audio/actual/s5-lecture-10_jean_saigne_beaucoup-5_cut1norm.mp3","button_pressed":"0","test_part":"test","phrase":"10","condition":"lecture","subject":"s5","trial_type":"audio-button-response","trial_index":14,"time_elapsed":83669,"internal_node_id":"0.0-1.0-0.6"},{"rt":2401.439999928698,"stimulus":"audio/actual/s8-lecture-10bis_jenseigne_beaucoup-11_cut1norm.mp3","button_pressed":"0","test_part":"test","phrase":"10bis","condition":"lecture","subject":"s8","trial_type":"audio-button-response","trial_index":16,"time_elapsed":87357,"internal_node_id":"0.0-1.0-0.7"},{"rt":3919.3349999841303,"stimulus":"audio/actual/s10-guide-10bis_jenseigne_beaucoup.mp3","button_pressed":"1","test_part":"test","phrase":"10bis","condition":"guide","subject":"s10","trial_type":"audio-button-response","trial_index":18,"time_elapsed":92794,"internal_node_id":"0.0-1.0-0.8"},{"rt":5213.904999895021,"stimulus":"audio/actual/s4-lecture-10bis_jenseigne_beaucoup-0_cut1norm.mp3","button_pressed":"1","test_part":"test","phrase":"10bis","condition":"lecture","subject":"s4","trial_type":"audio-button-response","trial_index":20,"time_elapsed":99060,"internal_node_id":"0.0-1.0-0.9"},{"rt":1299.2799999192357,"stimulus":"audio/actual/s5-imitation-10bis_jenseigne_beaucoup-11_cut1norm.mp3","button_pressed":"1","test_part":"test","phrase":"10bis","condition":"imitation","subject":"s5","trial_type":"audio-button-response","trial_index":22,"time_elapsed":101176,"internal_node_id":"0.0-1.0-0.10"},{"rt":2473.740000044927,"stimulus":"audio/actual/s4-lecture-10_jean_saigne_beaucoup-1_cut1norm.mp3","button_pressed":"0","test_part":"test","phrase":"10","condition":"lecture","subject":"s4","trial_type":"audio-button-response","trial_index":24,"time_elapsed":106716,"internal_node_id":"0.0-1.0-0.11"},{"rt":3093.2000000029802,"stimulus":"audio/actual/s7-imitation-10bis_jenseigne_beaucoup-2_cut1norm.mp3","button_pressed":"1","test_part":"test","phrase":"10bis","condition":"imitation","subject":"s7","trial_type":"audio-button-response","trial_index":26,"time_elapsed":111248,"internal_node_id":"0.0-1.0-0.12"},{"rt":3771.859999978915,"stimulus":"audio/actual/s8-lecture-10_jean_saigne_beaucoup-10_cut1norm.mp3","button_pressed":"0","test_part":"test","phrase":"10","condition":"lecture","subject":"s8","trial_type":"audio-button-response","trial_index":28,"time_elapsed":116168,"internal_node_id":"0.0-1.0-0.13"},{"rt":3135.9999999403954,"stimulus":"audio/actual/s4-guide-10bis_jenseigne_beaucoup.mp3","button_pressed":"1","test_part":"test","phrase":"10bis","condition":"guide","subject":"s4","trial_type":"audio-button-response","trial_index":30,"time_elapsed":120576,"internal_node_id":"0.0-1.0-0.14"},{"rt":2717.2600000631064,"stimulus":"audio/actual/s7-lecture-10_jean_saigne_beaucoup-8_cut1norm.mp3","button_pressed":"0","test_part":"test","phrase":"10","condition":"lecture","subject":"s7","trial_type":"audio-button-response","trial_index":32,"time_elapsed":124890,"internal_node_id":"0.0-1.0-0.15"},{"rt":4012.0800000149757,"stimulus":"audio/actual/s10-lecture-10bis_jenseigne_beaucoup-11_cut1norm.mp3","button_pressed":"2","test_part":"test","phrase":"10bis","condition":"lecture","subject":"s10","trial_type":"audio-button-response","trial_index":34,"time_elapsed":131007,"internal_node_id":"0.0-1.0-0.16"},{"rt":1782.0099999662489,"stimulus":"audio/actual/s10-lecture-10bis_jenseigne_beaucoup-11_cut1norm.mp3","button_pressed":"1","test_part":"test","phrase":"10bis","condition":"lecture","subject":"s10","trial_type":"audio-button-response","trial_index":35,"time_elapsed":132791,"internal_node_id":"0.0-1.0-1.16-0.16"},{"rt":2129.50999988243,"stimulus":"audio/actual/s9-imitation-10_jean_saigne_beaucoup-4_cut1norm.mp3","button_pressed":"0","test_part":"test","phrase":"10","condition":"imitation","subject":"s9","trial_type":"audio-button-response","trial_index":37,"time_elapsed":136000,"internal_node_id":"0.0-1.0-0.17"},{"rt":2303.489999845624,"stimulus":"audio/actual/s1-lecture-10_jean_saigne_beaucoup-2_cut1norm.mp3","button_pressed":"1","test_part":"test","phrase":"10","condition":"lecture","subject":"s1","trial_type":"audio-button-response","trial_index":39,"time_elapsed":139415,"internal_node_id":"0.0-1.0-0.18"},{"rt":2496.2999999988824,"stimulus":"audio/actual/s5-imitation-10_jean_saigne_beaucoup-10_cut1norm.mp3","button_pressed":"0","test_part":"test","phrase":"10","condition":"imitation","subject":"s5","trial_type":"audio-button-response","trial_index":41,"time_elapsed":143171,"internal_node_id":"0.0-1.0-0.19"},{"rt":3087.5450000166893,"stimulus":"audio/actual/s2-guide-10_jean_saigne_beaucoup.mp3","button_pressed":"0","test_part":"test","phrase":"10","condition":"guide","subject":"s2","trial_type":"audio-button-response","trial_index":43,"time_elapsed":147633,"internal_node_id":"0.0-1.0-0.20"},{"rt":4237.590000033379,"stimulus":"audio/actual/s5-lecture-10bis_jenseigne_beaucoup-4_cut1norm.mp3","button_pressed":"0","test_part":"test","phrase":"10bis","condition":"lecture","subject":"s5","trial_type":"audio-button-response","trial_index":45,"time_elapsed":152744,"internal_node_id":"0.0-1.0-0.21"},{"rt":1812.1549999341369,"stimulus":"audio/actual/s7-blind-10bis_jenseigne_beaucoup.mp3","button_pressed":"1","test_part":"test","phrase":"10bis","condition":"blind","subject":"s7","trial_type":"audio-button-response","trial_index":47,"time_elapsed":156428,"internal_node_id":"0.0-1.0-0.22"},{"rt":2164.704999886453,"stimulus":"audio/actual/s10-imitation-10_jean_saigne_beaucoup-11_cut1norm.mp3","button_pressed":"0","test_part":"test","phrase":"10","condition":"imitation","subject":"s10","trial_type":"audio-button-response","trial_index":49,"time_elapsed":159806,"internal_node_id":"0.0-1.0-0.23"},{"rt":3682.984999846667,"stimulus":"audio/actual/s7-guide-10_jean_saigne_beaucoup.mp3","button_pressed":"2","test_part":"test","phrase":"10","condition":"guide","subject":"s7","trial_type":"audio-button-response","trial_index":51,"time_elapsed":164421,"internal_node_id":"0.0-1.0-0.24"},{"rt":1932.3150001000613,"stimulus":"audio/actual/s7-guide-10_jean_saigne_beaucoup.mp3","button_pressed":"0","test_part":"test","phrase":"10","condition":"guide","subject":"s7","trial_type":"audio-button-response","trial_index":52,"time_elapsed":166355,"internal_node_id":"0.0-1.0-1.24-0.24"},{"rt":4027.334999991581,"stimulus":"audio/actual/s10-guide-10_jean_saigne_beaucoup.mp3","button_pressed":"1","test_part":"test","phrase":"10","condition":"guide","subject":"s10","trial_type":"audio-button-response","trial_index":54,"time_elapsed":171405,"internal_node_id":"0.0-1.0-0.25"},{"rt":1614.0450001694262,"stimulus":"audio/actual/s5-guide-10bis_jenseigne_beaucoup.mp3","button_pressed":"1","test_part":"test","phrase":"10bis","condition":"guide","subject":"s5","trial_type":"audio-button-response","trial_index":56,"time_elapsed":174088,"internal_node_id":"0.0-1.0-0.26"},{"rt":1614.0650000888854,"stimulus":"audio/actual/s7-guide-10bis_jenseigne_beaucoup.mp3","button_pressed":"1","test_part":"test","phrase":"10bis","condition":"guide","subject":"s7","trial_type":"audio-button-response","trial_index":58,"time_elapsed":176687,"internal_node_id":"0.0-1.0-0.27"},{"rt":2255.2900000009686,"stimulus":"audio/actual/s9-blind-10bis_jenseigne_beaucoup.mp3","button_pressed":"1","test_part":"test","phrase":"10bis","condition":"blind","subject":"s9","trial_type":"audio-button-response","trial_index":60,"time_elapsed":180194,"internal_node_id":"0.0-1.0-0.28"},{"rt":3146.8199999071658,"stimulus":"audio/actual/s3-blind-10bis_jenseigne_beaucoup.mp3","button_pressed":"2","test_part":"test","phrase":"10bis","condition":"blind","subject":"s3","trial_type":"audio-button-response","trial_index":62,"time_elapsed":184265,"internal_node_id":"0.0-1.0-0.29"},{"rt":1913.325000088662,"stimulus":"audio/actual/s3-blind-10bis_jenseigne_beaucoup.mp3","button_pressed":"0","test_part":"test","phrase":"10bis","condition":"blind","subject":"s3","trial_type":"audio-button-response","trial_index":63,"time_elapsed":186180,"internal_node_id":"0.0-1.0-1.29-0.29"},{"rt":2048.6200000159442,"stimulus":"audio/actual/s2-blind-10_jean_saigne_beaucoup.mp3","button_pressed":"0","test_part":"test","phrase":"10","condition":"blind","subject":"s2","trial_type":"audio-button-response","trial_index":65,"time_elapsed":189474,"internal_node_id":"0.0-1.0-0.30"},{"rt":2295.0999999884516,"stimulus":"audio/actual/s9-blind-10_jean_saigne_beaucoup.mp3","button_pressed":"1","test_part":"test","phrase":"10","condition":"blind","subject":"s9","trial_type":"audio-button-response","trial_index":67,"time_elapsed":192866,"internal_node_id":"0.0-1.0-0.31"},{"rt":3257.289999863133,"stimulus":"audio/actual/s7-lecture-10bis_jenseigne_beaucoup-9_cut1norm.mp3","button_pressed":"2","test_part":"test","phrase":"10bis","condition":"lecture","subject":"s7","trial_type":"audio-button-response","trial_index":69,"time_elapsed":197542,"internal_node_id":"0.0-1.0-0.32"},{"rt":1528.5000000149012,"stimulus":"audio/actual/s7-lecture-10bis_jenseigne_beaucoup-9_cut1norm.mp3","button_pressed":"1","test_part":"test","phrase":"10bis","condition":"lecture","subject":"s7","trial_type":"audio-button-response","trial_index":70,"time_elapsed":199072,"internal_node_id":"0.0-1.0-1.32-0.32"},{"rt":2303.0799999833107,"stimulus":"audio/actual/s9-lecture-10_jean_saigne_beaucoup-3_cut1norm.mp3","button_pressed":"0","test_part":"test","phrase":"10","condition":"lecture","subject":"s9","trial_type":"audio-button-response","trial_index":72,"time_elapsed":203932,"internal_node_id":"0.0-1.0-0.33"},{"rt":3560.605000006035,"stimulus":"audio/actual/s2-imitation-10_jean_saigne_beaucoup-4_cut1norm.mp3","button_pressed":"2","test_part":"test","phrase":"10","condition":"imitation","subject":"s2","trial_type":"audio-button-response","trial_index":74,"time_elapsed":209332,"internal_node_id":"0.0-1.0-0.34"},{"rt":1887.9599999636412,"stimulus":"audio/actual/s2-imitation-10_jean_saigne_beaucoup-4_cut1norm.mp3","button_pressed":"0","test_part":"test","phrase":"10","condition":"imitation","subject":"s2","trial_type":"audio-button-response","trial_index":75,"time_elapsed":211221,"internal_node_id":"0.0-1.0-1.34-0.34"},{"rt":2515.1250001508743,"stimulus":"audio/actual/s9-guide-10_jean_saigne_beaucoup.mp3","button_pressed":"1","test_part":"test","phrase":"10","condition":"guide","subject":"s9","trial_type":"audio-button-response","trial_index":77,"time_elapsed":214610,"internal_node_id":"0.0-1.0-0.35"},{"rt":3634.2500001192093,"stimulus":"audio/actual/s4-imitation-10bis_jenseigne_beaucoup-0_cut1norm.mp3","button_pressed":"2","test_part":"test","phrase":"10bis","condition":"imitation","subject":"s4","trial_type":"audio-button-response","trial_index":79,"time_elapsed":219133,"internal_node_id":"0.0-1.0-0.36"},{"rt":1542.5249999389052,"stimulus":"audio/actual/s4-imitation-10bis_jenseigne_beaucoup-0_cut1norm.mp3","button_pressed":"1","test_part":"test","phrase":"10bis","condition":"imitation","subject":"s4","trial_type":"audio-button-response","trial_index":80,"time_elapsed":220676,"internal_node_id":"0.0-1.0-1.36-0.36"},{"rt":2632.9300000797957,"stimulus":"audio/actual/s6-lecture-10_jean_saigne_beaucoup-1_cut1norm.mp3","button_pressed":"0","test_part":"test","phrase":"10","condition":"lecture","subject":"s6","trial_type":"audio-button-response","trial_index":82,"time_elapsed":224145,"internal_node_id":"0.0-1.0-0.37"},{"rt":1640.4400002211332,"stimulus":"audio/actual/s2-blind-10bis_jenseigne_beaucoup.mp3","button_pressed":"1","test_part":"test","phrase":"10bis","condition":"blind","subject":"s2","trial_type":"audio-button-response","trial_index":84,"time_elapsed":226623,"internal_node_id":"0.0-1.0-0.38"},{"rt":1821.2949999142438,"stimulus":"audio/actual/s8-guide-10_jean_saigne_beaucoup.mp3","button_pressed":"0","test_part":"test","phrase":"10","condition":"guide","subject":"s8","trial_type":"audio-button-response","trial_index":86,"time_elapsed":229596,"internal_node_id":"0.0-1.0-0.39"},{"rt":2994.9199999682605,"stimulus":"audio/actual/s2-guide-10bis_jenseigne_beaucoup.mp3","button_pressed":"2","test_part":"test","phrase":"10bis","condition":"guide","subject":"s2","trial_type":"audio-button-response","trial_index":88,"time_elapsed":233363,"internal_node_id":"0.0-1.0-0.40"},{"rt":2670.1349997892976,"stimulus":"audio/actual/s2-guide-10bis_jenseigne_beaucoup.mp3","button_pressed":"1","test_part":"test","phrase":"10bis","condition":"guide","subject":"s2","trial_type":"audio-button-response","trial_index":89,"time_elapsed":236034,"internal_node_id":"0.0-1.0-1.40-0.40"},{"rt":2507.6150000095367,"stimulus":"audio/actual/s10-lecture-10_jean_saigne_beaucoup-10_cut1norm.mp3","button_pressed":"1","test_part":"test","phrase":"10","condition":"lecture","subject":"s10","trial_type":"audio-button-response","trial_index":91,"time_elapsed":239752,"internal_node_id":"0.0-1.0-0.41"},{"rt":1929.7849999275059,"stimulus":"audio/actual/s2-imitation-10bis_jenseigne_beaucoup-5_cut1norm.mp3","button_pressed":"1","test_part":"test","phrase":"10bis","condition":"imitation","subject":"s2","trial_type":"audio-button-response","trial_index":93,"time_elapsed":242485,"internal_node_id":"0.0-1.0-0.42"},{"rt":3501.894999993965,"stimulus":"audio/actual/s3-guide-10bis_jenseigne_beaucoup.mp3","button_pressed":"2","test_part":"test","phrase":"10bis","condition":"guide","subject":"s3","trial_type":"audio-button-response","trial_index":95,"time_elapsed":246893,"internal_node_id":"0.0-1.0-0.43"},{"rt":1471.8849998898804,"stimulus":"audio/actual/s3-guide-10bis_jenseigne_beaucoup.mp3","button_pressed":"0","test_part":"test","phrase":"10bis","condition":"guide","subject":"s3","trial_type":"audio-button-response","trial_index":96,"time_elapsed":248367,"internal_node_id":"0.0-1.0-1.43-0.43"},{"rt":3939.8199999704957,"stimulus":"audio/actual/s4-guide-10_jean_saigne_beaucoup.mp3","button_pressed":"1","test_part":"test","phrase":"10","condition":"guide","subject":"s4","trial_type":"audio-button-response","trial_index":98,"time_elapsed":253441,"internal_node_id":"0.0-1.0-0.44"},{"rt":3058.960000053048,"stimulus":"audio/actual/s5-blind-10bis_jenseigne_beaucoup.mp3","button_pressed":"1","test_part":"test","phrase":"10bis","condition":"blind","subject":"s5","trial_type":"audio-button-response","trial_index":100,"time_elapsed":257471,"internal_node_id":"0.0-1.0-0.45"},{"rt":3974.8449998442084,"stimulus":"audio/actual/s3-blind-10_jean_saigne_beaucoup.mp3","button_pressed":"0","test_part":"test","phrase":"10","condition":"blind","subject":"s3","trial_type":"audio-button-response","trial_index":102,"time_elapsed":264072,"internal_node_id":"0.0-1.0-0.46"},{"rt":2526.4950001146644,"stimulus":"audio/actual/s1-imitation-10bis_jenseigne_beaucoup-10_cut1norm.mp3","button_pressed":"1","test_part":"test","phrase":"10bis","condition":"imitation","subject":"s1","trial_type":"audio-button-response","trial_index":104,"time_elapsed":270329,"internal_node_id":"0.0-1.0-0.47"},{"rt":2042.8599999286234,"stimulus":"audio/actual/s3-imitation-10bis_jenseigne_beaucoup-3_cut1norm.mp3","button_pressed":"1","test_part":"test","phrase":"10bis","condition":"imitation","subject":"s3","trial_type":"audio-button-response","trial_index":106,"time_elapsed":274438,"internal_node_id":"0.0-1.0-0.48"},{"rt":2865.4950000345707,"stimulus":"audio/actual/s1-guide-10bis_jenseigne_beaucoup.mp3","button_pressed":"0","test_part":"test","phrase":"10bis","condition":"guide","subject":"s1","trial_type":"audio-button-response","trial_index":108,"time_elapsed":278548,"internal_node_id":"0.0-1.0-0.49"},{"rt":1650.9499999228865,"stimulus":"audio/actual/s5-blind-10_jean_saigne_beaucoup.mp3","button_pressed":"0","test_part":"test","phrase":"10","condition":"blind","subject":"s5","trial_type":"audio-button-response","trial_index":110,"time_elapsed":281528,"internal_node_id":"0.0-1.0-0.50"},{"rt":2324.4349998421967,"stimulus":"audio/actual/s10-blind-10bis_jenseigne_beaucoup.mp3","button_pressed":"1","test_part":"test","phrase":"10bis","condition":"blind","subject":"s10","trial_type":"audio-button-response","trial_index":112,"time_elapsed":284767,"internal_node_id":"0.0-1.0-0.51"},{"rt":2014.0549999196082,"stimulus":"audio/actual/s6-lecture-10bis_jenseigne_beaucoup-0_cut1norm.mp3","button_pressed":"1","test_part":"test","phrase":"10bis","condition":"lecture","subject":"s6","trial_type":"audio-button-response","trial_index":114,"time_elapsed":287645,"internal_node_id":"0.0-1.0-0.52"},{"rt":1672.6699999999255,"stimulus":"audio/actual/s10-imitation-10bis_jenseigne_beaucoup-10_cut1norm.mp3","button_pressed":"0","test_part":"test","phrase":"10bis","condition":"imitation","subject":"s10","trial_type":"audio-button-response","trial_index":116,"time_elapsed":290603,"internal_node_id":"0.0-1.0-0.53"},{"rt":3695.289999945089,"stimulus":"audio/actual/s6-blind-10_jean_saigne_beaucoup.mp3","button_pressed":"1","test_part":"test","phrase":"10","condition":"blind","subject":"s6","trial_type":"audio-button-response","trial_index":118,"time_elapsed":295140,"internal_node_id":"0.0-1.0-0.54"},{"rt":2061.835000058636,"stimulus":"audio/actual/s1-lecture-10bis_jenseigne_beaucoup-3_cut1norm.mp3","button_pressed":"1","test_part":"test","phrase":"10bis","condition":"lecture","subject":"s1","trial_type":"audio-button-response","trial_index":120,"time_elapsed":298730,"internal_node_id":"0.0-1.0-0.55"},{"rt":2304.105000104755,"stimulus":"audio/actual/s3-guide-10_jean_saigne_beaucoup.mp3","button_pressed":"0","test_part":"test","phrase":"10","condition":"guide","subject":"s3","trial_type":"audio-button-response","trial_index":122,"time_elapsed":301941,"internal_node_id":"0.0-1.0-0.56"},{"rt":2848.854999989271,"stimulus":"audio/actual/s4-blind-10_jean_saigne_beaucoup.mp3","button_pressed":"1","test_part":"test","phrase":"10","condition":"blind","subject":"s4","trial_type":"audio-button-response","trial_index":124,"time_elapsed":306236,"internal_node_id":"0.0-1.0-0.57"},{"rt":1791.0150000825524,"stimulus":"audio/actual/s9-imitation-10bis_jenseigne_beaucoup-5_cut1norm.mp3","button_pressed":"1","test_part":"test","phrase":"10bis","condition":"imitation","subject":"s9","trial_type":"audio-button-response","trial_index":126,"time_elapsed":309561,"internal_node_id":"0.0-1.0-0.58"},{"rt":2398.2500000856817,"stimulus":"audio/actual/s5-guide-10_jean_saigne_beaucoup.mp3","button_pressed":"0","test_part":"test","phrase":"10","condition":"guide","subject":"s5","trial_type":"audio-button-response","trial_index":128,"time_elapsed":312783,"internal_node_id":"0.0-1.0-0.59"},{"rt":4292.4599999096245,"stimulus":"audio/actual/s2-lecture-10bis_jenseigne_beaucoup-6_cut1norm.mp3","button_pressed":"2","test_part":"test","phrase":"10bis","condition":"lecture","subject":"s2","trial_type":"audio-button-response","trial_index":130,"time_elapsed":319170,"internal_node_id":"0.0-1.0-0.60"},{"rt":2216.2099999841303,"stimulus":"audio/actual/s2-lecture-10bis_jenseigne_beaucoup-6_cut1norm.mp3","button_pressed":"1","test_part":"test","phrase":"10bis","condition":"lecture","subject":"s2","trial_type":"audio-button-response","trial_index":131,"time_elapsed":321388,"internal_node_id":"0.0-1.0-1.60-0.60"},{"rt":4384.030000073835,"stimulus":"audio/actual/s1-guide-10_jean_saigne_beaucoup.mp3","button_pressed":"1","test_part":"test","phrase":"10","condition":"guide","subject":"s1","trial_type":"audio-button-response","trial_index":133,"time_elapsed":326859,"internal_node_id":"0.0-1.0-0.61"},{"rt":2496.9299999065697,"stimulus":"audio/actual/s4-imitation-10_jean_saigne_beaucoup-1_cut1norm.mp3","button_pressed":"0","test_part":"test","phrase":"10","condition":"imitation","subject":"s4","trial_type":"audio-button-response","trial_index":135,"time_elapsed":331174,"internal_node_id":"0.0-1.0-0.62"},{"rt":3497.8350000455976,"stimulus":"audio/actual/s8-blind-10_jean_saigne_beaucoup.mp3","button_pressed":"2","test_part":"test","phrase":"10","condition":"blind","subject":"s8","trial_type":"audio-button-response","trial_index":137,"time_elapsed":370085,"internal_node_id":"0.0-1.0-0.63"},{"rt":1548.1950000394136,"stimulus":"audio/actual/s8-blind-10_jean_saigne_beaucoup.mp3","button_pressed":"0","test_part":"test","phrase":"10","condition":"blind","subject":"s8","trial_type":"audio-button-response","trial_index":138,"time_elapsed":371635,"internal_node_id":"0.0-1.0-1.63-0.63"},{"rt":2359.639999922365,"stimulus":"audio/actual/s4-blind-10bis_jenseigne_beaucoup.mp3","button_pressed":"1","test_part":"test","phrase":"10bis","condition":"blind","subject":"s4","trial_type":"audio-button-response","trial_index":140,"time_elapsed":375125,"internal_node_id":"0.0-1.0-0.64"},{"rt":1970.7100000232458,"stimulus":"audio/actual/s1-imitation-10_jean_saigne_beaucoup-11_cut1norm.mp3","button_pressed":"0","test_part":"test","phrase":"10","condition":"imitation","subject":"s1","trial_type":"audio-button-response","trial_index":142,"time_elapsed":377980,"internal_node_id":"0.0-1.0-0.65"},{"rt":1998.0699999723583,"stimulus":"audio/actual/s6-imitation-10_jean_saigne_beaucoup-5_cut1norm.mp3","button_pressed":"0","test_part":"test","phrase":"10","condition":"imitation","subject":"s6","trial_type":"audio-button-response","trial_index":144,"time_elapsed":380986,"internal_node_id":"0.0-1.0-0.66"},{"rt":1614.9300001561642,"stimulus":"audio/actual/s9-guide-10bis_jenseigne_beaucoup.mp3","button_pressed":"1","test_part":"test","phrase":"10bis","condition":"guide","subject":"s9","trial_type":"audio-button-response","trial_index":146,"time_elapsed":383419,"internal_node_id":"0.0-1.0-0.67"},{"rt":1605.7249999139458,"stimulus":"audio/actual/s8-imitation-10bis_jenseigne_beaucoup-11_cut1norm.mp3","button_pressed":"1","test_part":"test","phrase":"10bis","condition":"imitation","subject":"s8","trial_type":"audio-button-response","trial_index":148,"time_elapsed":387380,"internal_node_id":"0.0-1.0-0.68"},{"rt":3582.5000000186265,"stimulus":"audio/actual/s1-blind-10bis_jenseigne_beaucoup.mp3","button_pressed":"0","test_part":"test","phrase":"10bis","condition":"blind","subject":"s1","trial_type":"audio-button-response","trial_index":150,"time_elapsed":391713,"internal_node_id":"0.0-1.0-0.69"},{"rt":3725.0200000125915,"stimulus":"audio/actual/s10-blind-10_jean_saigne_beaucoup.mp3","button_pressed":"1","test_part":"test","phrase":"10","condition":"blind","subject":"s10","trial_type":"audio-button-response","trial_index":152,"time_elapsed":396322,"internal_node_id":"0.0-1.0-0.70"},{"rt":2278.8350000046194,"stimulus":"audio/actual/s3-lecture-10bis_jenseigne_beaucoup-3_cut1norm.mp3","button_pressed":"1","test_part":"test","phrase":"10bis","condition":"lecture","subject":"s3","trial_type":"audio-button-response","trial_index":154,"time_elapsed":400463,"internal_node_id":"0.0-1.0-0.71"},{"rt":5165.404999861494,"stimulus":"audio/actual/s2-lecture-10_jean_saigne_beaucoup-7_cut1norm.mp3","button_pressed":"2","test_part":"test","phrase":"10","condition":"lecture","subject":"s2","trial_type":"audio-button-response","trial_index":156,"time_elapsed":406322,"internal_node_id":"0.0-1.0-0.72"},{"rt":1880.3349998779595,"stimulus":"audio/actual/s2-lecture-10_jean_saigne_beaucoup-7_cut1norm.mp3","button_pressed":"0","test_part":"test","phrase":"10","condition":"lecture","subject":"s2","trial_type":"audio-button-response","trial_index":157,"time_elapsed":408203,"internal_node_id":"0.0-1.0-1.72-0.72"},{"rt":3586.4999999757856,"stimulus":"audio/actual/s7-blind-10_jean_saigne_beaucoup.mp3","button_pressed":"0","test_part":"test","phrase":"10","condition":"blind","subject":"s7","trial_type":"audio-button-response","trial_index":159,"time_elapsed":412768,"internal_node_id":"0.0-1.0-0.73"},{"rt":3156.490000197664,"stimulus":"audio/actual/s1-blind-10_jean_saigne_beaucoup.mp3","button_pressed":"0","test_part":"test","phrase":"10","condition":"blind","subject":"s1","trial_type":"audio-button-response","trial_index":161,"time_elapsed":419212,"internal_node_id":"0.0-1.0-0.74"},{"rt":2151.8449999857694,"stimulus":"audio/actual/s7-imitation-10_jean_saigne_beaucoup-3_cut1norm.mp3","button_pressed":"0","test_part":"test","phrase":"10","condition":"imitation","subject":"s7","trial_type":"audio-button-response","trial_index":163,"time_elapsed":422108,"internal_node_id":"0.0-1.0-0.75"},{"rt":1759.5349999610335,"stimulus":"audio/actual/s9-lecture-10bis_jenseigne_beaucoup-2_cut1norm.mp3","button_pressed":"1","test_part":"test","phrase":"10bis","condition":"lecture","subject":"s9","trial_type":"audio-button-response","trial_index":165,"time_elapsed":424574,"internal_node_id":"0.0-1.0-0.76"},{"rt":1891.0449999384582,"stimulus":"audio/actual/s3-imitation-10_jean_saigne_beaucoup-2_cut1norm.mp3","button_pressed":"0","test_part":"test","phrase":"10","condition":"imitation","subject":"s3","trial_type":"audio-button-response","trial_index":167,"time_elapsed":427333,"internal_node_id":"0.0-1.0-0.77"},{"rt":1862.4299999792129,"stimulus":"audio/actual/s6-guide-10_jean_saigne_beaucoup.mp3","button_pressed":"1","test_part":"test","phrase":"10","condition":"guide","subject":"s6","trial_type":"audio-button-response","trial_index":169,"time_elapsed":430498,"internal_node_id":"0.0-1.0-0.78"},{"rt":2505.905000027269,"stimulus":"audio/actual/s3-lecture-10_jean_saigne_beaucoup-2_cut1norm.mp3","button_pressed":"0","test_part":"test","phrase":"10","condition":"lecture","subject":"s3","trial_type":"audio-button-response","trial_index":171,"time_elapsed":434187,"internal_node_id":"0.0-1.0-0.79"}]