[{"rt":3467.0850000111386,"stimulus":"audio/actual/s10-guide-10bis_jenseigne_beaucoup.mp3","button_pressed":"1","test_part":"test","phrase":"10bis","condition":"guide","subject":"s10","trial_type":"audio-button-response","trial_index":1,"time_elapsed":9927,"internal_node_id":"0.0-1.0-0.0"},{"rt":1733.0450000008568,"stimulus":"audio/actual/s5-guide-10bis_jenseigne_beaucoup.mp3","button_pressed":"1","test_part":"test","phrase":"10bis","condition":"guide","subject":"s5","trial_type":"audio-button-response","trial_index":3,"time_elapsed":12366,"internal_node_id":"0.0-1.0-0.1"},{"rt":2971.0050000576302,"stimulus":"audio/actual/s10-blind-10bis_jenseigne_beaucoup.mp3","button_pressed":"0","test_part":"test","phrase":"10bis","condition":"blind","subject":"s10","trial_type":"audio-button-response","trial_index":5,"time_elapsed":16014,"internal_node_id":"0.0-1.0-0.2"},{"rt":1914.7900000680238,"stimulus":"audio/actual/s2-imitation-10_jean_saigne_beaucoup-4_cut1norm.mp3","button_pressed":"0","test_part":"test","phrase":"10","condition":"imitation","subject":"s2","trial_type":"audio-button-response","trial_index":7,"time_elapsed":18374,"internal_node_id":"0.0-1.0-0.3"},{"rt":2152.0000000018626,"stimulus":"audio/actual/s3-lecture-10bis_jenseigne_beaucoup-3_cut1norm.mp3","button_pressed":"1","test_part":"test","phrase":"10bis","condition":"lecture","subject":"s3","trial_type":"audio-button-response","trial_index":9,"time_elapsed":21726,"internal_node_id":"0.0-1.0-0.4"},{"rt":1722.9300000471994,"stimulus":"audio/actual/s5-lecture-10_jean_saigne_beaucoup-5_cut1norm.mp3","button_pressed":"0","test_part":"test","phrase":"10","condition":"lecture","subject":"s5","trial_type":"audio-button-response","trial_index":11,"time_elapsed":23910,"internal_node_id":"0.0-1.0-0.5"},{"rt":1775.3299999749288,"stimulus":"audio/actual/s3-imitation-10bis_jenseigne_beaucoup-3_cut1norm.mp3","button_pressed":"1","test_part":"test","phrase":"10bis","condition":"imitation","subject":"s3","trial_type":"audio-button-response","trial_index":13,"time_elapsed":26231,"internal_node_id":"0.0-1.0-0.6"},{"rt":1531.7400000058115,"stimulus":"audio/actual/s7-guide-10bis_jenseigne_beaucoup.mp3","button_pressed":"1","test_part":"test","phrase":"10bis","condition":"guide","subject":"s7","trial_type":"audio-button-response","trial_index":15,"time_elapsed":28214,"internal_node_id":"0.0-1.0-0.7"},{"rt":1791.440000059083,"stimulus":"audio/actual/s10-lecture-10bis_jenseigne_beaucoup-11_cut1norm.mp3","button_pressed":"1","test_part":"test","phrase":"10bis","condition":"lecture","subject":"s10","trial_type":"audio-button-response","trial_index":17,"time_elapsed":30502,"internal_node_id":"0.0-1.0-0.8"},{"rt":2006.180000025779,"stimulus":"audio/actual/s2-guide-10_jean_saigne_beaucoup.mp3","button_pressed":"0","test_part":"test","phrase":"10","condition":"guide","subject":"s2","trial_type":"audio-button-response","trial_index":19,"time_elapsed":32825,"internal_node_id":"0.0-1.0-0.9"},{"rt":1631.6150000784546,"stimulus":"audio/actual/s8-guide-10_jean_saigne_beaucoup.mp3","button_pressed":"0","test_part":"test","phrase":"10","condition":"guide","subject":"s8","trial_type":"audio-button-response","trial_index":21,"time_elapsed":34854,"internal_node_id":"0.0-1.0-0.10"},{"rt":2019.2650000099093,"stimulus":"audio/actual/s4-imitation-10_jean_saigne_beaucoup-1_cut1norm.mp3","button_pressed":"0","test_part":"test","phrase":"10","condition":"imitation","subject":"s4","trial_type":"audio-button-response","trial_index":23,"time_elapsed":37286,"internal_node_id":"0.0-1.0-0.11"},{"rt":1459.09500005655,"stimulus":"audio/actual/s7-lecture-10bis_jenseigne_beaucoup-9_cut1norm.mp3","button_pressed":"1","test_part":"test","phrase":"10bis","condition":"lecture","subject":"s7","trial_type":"audio-button-response","trial_index":25,"time_elapsed":38918,"internal_node_id":"0.0-1.0-0.12"},{"rt":3741.979999933392,"stimulus":"audio/actual/s6-blind-10bis_jenseigne_beaucoup.mp3","button_pressed":"1","test_part":"test","phrase":"10bis","condition":"blind","subject":"s6","trial_type":"audio-button-response","trial_index":27,"time_elapsed":43006,"internal_node_id":"0.0-1.0-0.13"},{"rt":2450.080000096932,"stimulus":"audio/actual/s7-guide-10_jean_saigne_beaucoup.mp3","button_pressed":"0","test_part":"test","phrase":"10","condition":"guide","subject":"s7","trial_type":"audio-button-response","trial_index":29,"time_elapsed":45934,"internal_node_id":"0.0-1.0-0.14"},{"rt":2208.184999995865,"stimulus":"audio/actual/s1-blind-10_jean_saigne_beaucoup.mp3","button_pressed":"0","test_part":"test","phrase":"10","condition":"blind","subject":"s1","trial_type":"audio-button-response","trial_index":31,"time_elapsed":48463,"internal_node_id":"0.0-1.0-0.15"},{"rt":1392.3749999376014,"stimulus":"audio/actual/s8-blind-10_jean_saigne_beaucoup.mp3","button_pressed":"0","test_part":"test","phrase":"10","condition":"blind","subject":"s8","trial_type":"audio-button-response","trial_index":33,"time_elapsed":50006,"internal_node_id":"0.0-1.0-0.16"},{"rt":2065.5350000597537,"stimulus":"audio/actual/s2-blind-10_jean_saigne_beaucoup.mp3","button_pressed":"1","test_part":"test","phrase":"10","condition":"blind","subject":"s2","trial_type":"audio-button-response","trial_index":35,"time_elapsed":52206,"internal_node_id":"0.0-1.0-0.17"},{"rt":1865.470000077039,"stimulus":"audio/actual/s10-imitation-10_jean_saigne_beaucoup-11_cut1norm.mp3","button_pressed":"0","test_part":"test","phrase":"10","condition":"imitation","subject":"s10","trial_type":"audio-button-response","trial_index":37,"time_elapsed":54294,"internal_node_id":"0.0-1.0-0.18"},{"rt":2791.359999915585,"stimulus":"audio/actual/s1-blind-10bis_jenseigne_beaucoup.mp3","button_pressed":"1","test_part":"test","phrase":"10bis","condition":"blind","subject":"s1","trial_type":"audio-button-response","trial_index":39,"time_elapsed":57406,"internal_node_id":"0.0-1.0-0.19"},{"rt":2179.45499997586,"stimulus":"audio/actual/s6-imitation-10_jean_saigne_beaucoup-5_cut1norm.mp3","button_pressed":"0","test_part":"test","phrase":"10","condition":"imitation","subject":"s6","trial_type":"audio-button-response","trial_index":41,"time_elapsed":59909,"internal_node_id":"0.0-1.0-0.20"},{"rt":3884.6049999119714,"stimulus":"audio/actual/s3-blind-10_jean_saigne_beaucoup.mp3","button_pressed":"0","test_part":"test","phrase":"10","condition":"blind","subject":"s3","trial_type":"audio-button-response","trial_index":43,"time_elapsed":64117,"internal_node_id":"0.0-1.0-0.21"},{"rt":1880.6350000668317,"stimulus":"audio/actual/s9-guide-10bis_jenseigne_beaucoup.mp3","button_pressed":"1","test_part":"test","phrase":"10bis","condition":"guide","subject":"s9","trial_type":"audio-button-response","trial_index":45,"time_elapsed":66229,"internal_node_id":"0.0-1.0-0.22"},{"rt":1579.7399999573827,"stimulus":"audio/actual/s8-lecture-10bis_jenseigne_beaucoup-11_cut1norm.mp3","button_pressed":"1","test_part":"test","phrase":"10bis","condition":"lecture","subject":"s8","trial_type":"audio-button-response","trial_index":47,"time_elapsed":68054,"internal_node_id":"0.0-1.0-0.23"},{"rt":2873.6499999649823,"stimulus":"audio/actual/s9-imitation-10bis_jenseigne_beaucoup-5_cut1norm.mp3","button_pressed":"0","test_part":"test","phrase":"10bis","condition":"imitation","subject":"s9","trial_type":"audio-button-response","trial_index":49,"time_elapsed":71078,"internal_node_id":"0.0-1.0-0.24"},{"rt":2257.329999934882,"stimulus":"audio/actual/s8-imitation-10_jean_saigne_beaucoup-10_cut1norm.mp3","button_pressed":"0","test_part":"test","phrase":"10","condition":"imitation","subject":"s8","trial_type":"audio-button-response","trial_index":51,"time_elapsed":73550,"internal_node_id":"0.0-1.0-0.25"},{"rt":1751.6550000291318,"stimulus":"audio/actual/s5-blind-10_jean_saigne_beaucoup.mp3","button_pressed":"0","test_part":"test","phrase":"10","condition":"blind","subject":"s5","trial_type":"audio-button-response","trial_index":53,"time_elapsed":75430,"internal_node_id":"0.0-1.0-0.26"},{"rt":1849.6349999913946,"stimulus":"audio/actual/s7-imitation-10bis_jenseigne_beaucoup-2_cut1norm.mp3","button_pressed":"1","test_part":"test","phrase":"10bis","condition":"imitation","subject":"s7","trial_type":"audio-button-response","trial_index":55,"time_elapsed":77398,"internal_node_id":"0.0-1.0-0.27"},{"rt":2418.7099999981,"stimulus":"audio/actual/s2-blind-10bis_jenseigne_beaucoup.mp3","button_pressed":"1","test_part":"test","phrase":"10bis","condition":"blind","subject":"s2","trial_type":"audio-button-response","trial_index":57,"time_elapsed":79966,"internal_node_id":"0.0-1.0-0.28"},{"rt":1773.3049999224022,"stimulus":"audio/actual/s9-imitation-10_jean_saigne_beaucoup-4_cut1norm.mp3","button_pressed":"0","test_part":"test","phrase":"10","condition":"imitation","subject":"s9","trial_type":"audio-button-response","trial_index":59,"time_elapsed":81886,"internal_node_id":"0.0-1.0-0.29"},{"rt":1880.5899999570101,"stimulus":"audio/actual/s6-lecture-10bis_jenseigne_beaucoup-0_cut1norm.mp3","button_pressed":"1","test_part":"test","phrase":"10bis","condition":"lecture","subject":"s6","trial_type":"audio-button-response","trial_index":61,"time_elapsed":84022,"internal_node_id":"0.0-1.0-0.30"},{"rt":1554.2699999641627,"stimulus":"audio/actual/s8-guide-10bis_jenseigne_beaucoup.mp3","button_pressed":"1","test_part":"test","phrase":"10bis","condition":"guide","subject":"s8","trial_type":"audio-button-response","trial_index":63,"time_elapsed":85934,"internal_node_id":"0.0-1.0-0.31"},{"rt":1901.590000023134,"stimulus":"audio/actual/s5-imitation-10_jean_saigne_beaucoup-10_cut1norm.mp3","button_pressed":"0","test_part":"test","phrase":"10","condition":"imitation","subject":"s5","trial_type":"audio-button-response","trial_index":65,"time_elapsed":88086,"internal_node_id":"0.0-1.0-0.32"},{"rt":2093.004999915138,"stimulus":"audio/actual/s7-blind-10_jean_saigne_beaucoup.mp3","button_pressed":"0","test_part":"test","phrase":"10","condition":"blind","subject":"s7","trial_type":"audio-button-response","trial_index":67,"time_elapsed":90422,"internal_node_id":"0.0-1.0-0.33"},{"rt":2145.6799999577925,"stimulus":"audio/actual/s3-imitation-10_jean_saigne_beaucoup-2_cut1norm.mp3","button_pressed":"0","test_part":"test","phrase":"10","condition":"imitation","subject":"s3","trial_type":"audio-button-response","trial_index":69,"time_elapsed":92774,"internal_node_id":"0.0-1.0-0.34"},{"rt":2189.364999998361,"stimulus":"audio/actual/s1-guide-10_jean_saigne_beaucoup.mp3","button_pressed":"0","test_part":"test","phrase":"10","condition":"guide","subject":"s1","trial_type":"audio-button-response","trial_index":71,"time_elapsed":95262,"internal_node_id":"0.0-1.0-0.35"},{"rt":2233.710000058636,"stimulus":"audio/actual/s7-lecture-10_jean_saigne_beaucoup-8_cut1norm.mp3","button_pressed":"0","test_part":"test","phrase":"10","condition":"lecture","subject":"s7","trial_type":"audio-button-response","trial_index":73,"time_elapsed":97742,"internal_node_id":"0.0-1.0-0.36"},{"rt":2851.2499999487773,"stimulus":"audio/actual/s6-lecture-10_jean_saigne_beaucoup-1_cut1norm.mp3","button_pressed":"0","test_part":"test","phrase":"10","condition":"lecture","subject":"s6","trial_type":"audio-button-response","trial_index":75,"time_elapsed":100821,"internal_node_id":"0.0-1.0-0.37"},{"rt":2392.23499991931,"stimulus":"audio/actual/s4-guide-10bis_jenseigne_beaucoup.mp3","button_pressed":"1","test_part":"test","phrase":"10bis","condition":"guide","subject":"s4","trial_type":"audio-button-response","trial_index":77,"time_elapsed":103477,"internal_node_id":"0.0-1.0-0.38"},{"rt":2944.72999998834,"stimulus":"audio/actual/s6-guide-10_jean_saigne_beaucoup.mp3","button_pressed":"0","test_part":"test","phrase":"10","condition":"guide","subject":"s6","trial_type":"audio-button-response","trial_index":79,"time_elapsed":106702,"internal_node_id":"0.0-1.0-0.39"},{"rt":1657.0950000314042,"stimulus":"audio/actual/s10-imitation-10bis_jenseigne_beaucoup-10_cut1norm.mp3","button_pressed":"1","test_part":"test","phrase":"10bis","condition":"imitation","subject":"s10","trial_type":"audio-button-response","trial_index":81,"time_elapsed":108549,"internal_node_id":"0.0-1.0-0.40"},{"rt":4691.675000009127,"stimulus":"audio/actual/s4-guide-10_jean_saigne_beaucoup.mp3","button_pressed":"0","test_part":"test","phrase":"10","condition":"guide","subject":"s4","trial_type":"audio-button-response","trial_index":83,"time_elapsed":113517,"internal_node_id":"0.0-1.0-0.41"},{"rt":2116.234999964945,"stimulus":"audio/actual/s7-imitation-10_jean_saigne_beaucoup-3_cut1norm.mp3","button_pressed":"0","test_part":"test","phrase":"10","condition":"imitation","subject":"s7","trial_type":"audio-button-response","trial_index":85,"time_elapsed":115781,"internal_node_id":"0.0-1.0-0.42"},{"rt":3770.0699999695644,"stimulus":"audio/actual/s3-guide-10_jean_saigne_beaucoup.mp3","button_pressed":"0","test_part":"test","phrase":"10","condition":"guide","subject":"s3","trial_type":"audio-button-response","trial_index":87,"time_elapsed":119742,"internal_node_id":"0.0-1.0-0.43"},{"rt":1610.1849999977276,"stimulus":"audio/actual/s5-imitation-10bis_jenseigne_beaucoup-11_cut1norm.mp3","button_pressed":"1","test_part":"test","phrase":"10bis","condition":"imitation","subject":"s5","trial_type":"audio-button-response","trial_index":89,"time_elapsed":121525,"internal_node_id":"0.0-1.0-0.44"},{"rt":1866.234999964945,"stimulus":"audio/actual/s1-imitation-10_jean_saigne_beaucoup-11_cut1norm.mp3","button_pressed":"0","test_part":"test","phrase":"10","condition":"imitation","subject":"s1","trial_type":"audio-button-response","trial_index":91,"time_elapsed":123645,"internal_node_id":"0.0-1.0-0.45"},{"rt":1822.6199999917299,"stimulus":"audio/actual/s9-guide-10_jean_saigne_beaucoup.mp3","button_pressed":"0","test_part":"test","phrase":"10","condition":"guide","subject":"s9","trial_type":"audio-button-response","trial_index":93,"time_elapsed":125662,"internal_node_id":"0.0-1.0-0.46"},{"rt":2185.880000004545,"stimulus":"audio/actual/s4-blind-10bis_jenseigne_beaucoup.mp3","button_pressed":"1","test_part":"test","phrase":"10bis","condition":"blind","subject":"s4","trial_type":"audio-button-response","trial_index":95,"time_elapsed":128022,"internal_node_id":"0.0-1.0-0.47"},{"rt":2528.4050001064315,"stimulus":"audio/actual/s9-lecture-10_jean_saigne_beaucoup-3_cut1norm.mp3","button_pressed":"0","test_part":"test","phrase":"10","condition":"lecture","subject":"s9","trial_type":"audio-button-response","trial_index":97,"time_elapsed":130726,"internal_node_id":"0.0-1.0-0.48"},{"rt":2086.9399999501184,"stimulus":"audio/actual/s4-lecture-10bis_jenseigne_beaucoup-0_cut1norm.mp3","button_pressed":"1","test_part":"test","phrase":"10bis","condition":"lecture","subject":"s4","trial_type":"audio-button-response","trial_index":99,"time_elapsed":132990,"internal_node_id":"0.0-1.0-0.49"},{"rt":1653.495000093244,"stimulus":"audio/actual/s8-blind-10bis_jenseigne_beaucoup.mp3","button_pressed":"1","test_part":"test","phrase":"10bis","condition":"blind","subject":"s8","trial_type":"audio-button-response","trial_index":101,"time_elapsed":134918,"internal_node_id":"0.0-1.0-0.50"},{"rt":2222.970000002533,"stimulus":"audio/actual/s4-lecture-10_jean_saigne_beaucoup-1_cut1norm.mp3","button_pressed":"0","test_part":"test","phrase":"10","condition":"lecture","subject":"s4","trial_type":"audio-button-response","trial_index":103,"time_elapsed":137295,"internal_node_id":"0.0-1.0-0.51"},{"rt":2004.590000025928,"stimulus":"audio/actual/s1-lecture-10_jean_saigne_beaucoup-2_cut1norm.mp3","button_pressed":"0","test_part":"test","phrase":"10","condition":"lecture","subject":"s1","trial_type":"audio-button-response","trial_index":105,"time_elapsed":139437,"internal_node_id":"0.0-1.0-0.52"},{"rt":1391.8099999427795,"stimulus":"audio/actual/s2-guide-10bis_jenseigne_beaucoup.mp3","button_pressed":"1","test_part":"test","phrase":"10bis","condition":"guide","subject":"s2","trial_type":"audio-button-response","trial_index":107,"time_elapsed":141142,"internal_node_id":"0.0-1.0-0.53"},{"rt":2985.8049999456853,"stimulus":"audio/actual/s10-blind-10_jean_saigne_beaucoup.mp3","button_pressed":"1","test_part":"test","phrase":"10","condition":"blind","subject":"s10","trial_type":"audio-button-response","trial_index":109,"time_elapsed":144327,"internal_node_id":"0.0-1.0-0.54"},{"rt":2427.335000014864,"stimulus":"audio/actual/s8-imitation-10bis_jenseigne_beaucoup-11_cut1norm.mp3","button_pressed":"1","test_part":"test","phrase":"10bis","condition":"imitation","subject":"s8","trial_type":"audio-button-response","trial_index":111,"time_elapsed":146997,"internal_node_id":"0.0-1.0-0.55"},{"rt":3182.924999971874,"stimulus":"audio/actual/s1-guide-10bis_jenseigne_beaucoup.mp3","button_pressed":"1","test_part":"test","phrase":"10bis","condition":"guide","subject":"s1","trial_type":"audio-button-response","trial_index":113,"time_elapsed":150325,"internal_node_id":"0.0-1.0-0.56"},{"rt":1853.6750000203028,"stimulus":"audio/actual/s9-blind-10_jean_saigne_beaucoup.mp3","button_pressed":"0","test_part":"test","phrase":"10","condition":"blind","subject":"s9","trial_type":"audio-button-response","trial_index":115,"time_elapsed":152285,"internal_node_id":"0.0-1.0-0.57"},{"rt":2560.649999999441,"stimulus":"audio/actual/s5-guide-10_jean_saigne_beaucoup.mp3","button_pressed":"0","test_part":"test","phrase":"10","condition":"guide","subject":"s5","trial_type":"audio-button-response","trial_index":117,"time_elapsed":155014,"internal_node_id":"0.0-1.0-0.58"},{"rt":2141.300000017509,"stimulus":"audio/actual/s6-blind-10_jean_saigne_beaucoup.mp3","button_pressed":"1","test_part":"test","phrase":"10","condition":"blind","subject":"s6","trial_type":"audio-button-response","trial_index":119,"time_elapsed":157357,"internal_node_id":"0.0-1.0-0.59"},{"rt":1487.390000023879,"stimulus":"audio/actual/s7-blind-10bis_jenseigne_beaucoup.mp3","button_pressed":"1","test_part":"test","phrase":"10bis","condition":"blind","subject":"s7","trial_type":"audio-button-response","trial_index":121,"time_elapsed":159045,"internal_node_id":"0.0-1.0-0.60"},{"rt":1905.9699999634176,"stimulus":"audio/actual/s3-guide-10bis_jenseigne_beaucoup.mp3","button_pressed":"1","test_part":"test","phrase":"10bis","condition":"guide","subject":"s3","trial_type":"audio-button-response","trial_index":123,"time_elapsed":161069,"internal_node_id":"0.0-1.0-0.61"},{"rt":2705.519999959506,"stimulus":"audio/actual/s5-blind-10bis_jenseigne_beaucoup.mp3","button_pressed":"1","test_part":"test","phrase":"10bis","condition":"blind","subject":"s5","trial_type":"audio-button-response","trial_index":125,"time_elapsed":163893,"internal_node_id":"0.0-1.0-0.62"},{"rt":3566.6800000471994,"stimulus":"audio/actual/s10-guide-10_jean_saigne_beaucoup.mp3","button_pressed":"0","test_part":"test","phrase":"10","condition":"guide","subject":"s10","trial_type":"audio-button-response","trial_index":127,"time_elapsed":167669,"internal_node_id":"0.0-1.0-0.63"},{"rt":1911.0850000288337,"stimulus":"audio/actual/s5-lecture-10bis_jenseigne_beaucoup-4_cut1norm.mp3","button_pressed":"1","test_part":"test","phrase":"10bis","condition":"lecture","subject":"s5","trial_type":"audio-button-response","trial_index":129,"time_elapsed":169821,"internal_node_id":"0.0-1.0-0.64"},{"rt":2981.2399999937043,"stimulus":"audio/actual/s4-blind-10_jean_saigne_beaucoup.mp3","button_pressed":"1","test_part":"test","phrase":"10","condition":"blind","subject":"s4","trial_type":"audio-button-response","trial_index":131,"time_elapsed":172949,"internal_node_id":"0.0-1.0-0.65"},{"rt":2281.69499989599,"stimulus":"audio/actual/s2-imitation-10bis_jenseigne_beaucoup-5_cut1norm.mp3","button_pressed":"1","test_part":"test","phrase":"10bis","condition":"imitation","subject":"s2","trial_type":"audio-button-response","trial_index":133,"time_elapsed":175365,"internal_node_id":"0.0-1.0-0.66"},{"rt":1638.0099999951199,"stimulus":"audio/actual/s10-lecture-10_jean_saigne_beaucoup-10_cut1norm.mp3","button_pressed":"1","test_part":"test","phrase":"10","condition":"lecture","subject":"s10","trial_type":"audio-button-response","trial_index":135,"time_elapsed":177101,"internal_node_id":"0.0-1.0-0.67"},{"rt":1769.0850000362843,"stimulus":"audio/actual/s6-imitation-10bis_jenseigne_beaucoup-4_cut1norm.mp3","button_pressed":"1","test_part":"test","phrase":"10bis","condition":"imitation","subject":"s6","trial_type":"audio-button-response","trial_index":137,"time_elapsed":179013,"internal_node_id":"0.0-1.0-0.68"},{"rt":2108.639999991283,"stimulus":"audio/actual/s4-imitation-10bis_jenseigne_beaucoup-0_cut1norm.mp3","button_pressed":"1","test_part":"test","phrase":"10bis","condition":"imitation","subject":"s4","trial_type":"audio-button-response","trial_index":139,"time_elapsed":181597,"internal_node_id":"0.0-1.0-0.69"},{"rt":2164.390000049025,"stimulus":"audio/actual/s3-lecture-10_jean_saigne_beaucoup-2_cut1norm.mp3","button_pressed":"0","test_part":"test","phrase":"10","condition":"lecture","subject":"s3","trial_type":"audio-button-response","trial_index":141,"time_elapsed":184037,"internal_node_id":"0.0-1.0-0.70"},{"rt":2055.409999913536,"stimulus":"audio/actual/s2-lecture-10bis_jenseigne_beaucoup-6_cut1norm.mp3","button_pressed":"1","test_part":"test","phrase":"10bis","condition":"lecture","subject":"s2","trial_type":"audio-button-response","trial_index":143,"time_elapsed":186341,"internal_node_id":"0.0-1.0-0.71"},{"rt":2178.509999997914,"stimulus":"audio/actual/s6-guide-10bis_jenseigne_beaucoup.mp3","button_pressed":"1","test_part":"test","phrase":"10bis","condition":"guide","subject":"s6","trial_type":"audio-button-response","trial_index":145,"time_elapsed":188662,"internal_node_id":"0.0-1.0-0.72"},{"rt":1902.585000032559,"stimulus":"audio/actual/s1-imitation-10bis_jenseigne_beaucoup-10_cut1norm.mp3","button_pressed":"1","test_part":"test","phrase":"10bis","condition":"imitation","subject":"s1","trial_type":"audio-button-response","trial_index":147,"time_elapsed":190791,"internal_node_id":"0.0-1.0-0.73"},{"rt":1640.5350000131875,"stimulus":"audio/actual/s9-blind-10bis_jenseigne_beaucoup.mp3","button_pressed":"1","test_part":"test","phrase":"10bis","condition":"blind","subject":"s9","trial_type":"audio-button-response","trial_index":149,"time_elapsed":192550,"internal_node_id":"0.0-1.0-0.74"},{"rt":3813.4050000226125,"stimulus":"audio/actual/s1-lecture-10bis_jenseigne_beaucoup-3_cut1norm.mp3","button_pressed":"1","test_part":"test","phrase":"10bis","condition":"lecture","subject":"s1","trial_type":"audio-button-response","trial_index":151,"time_elapsed":196470,"internal_node_id":"0.0-1.0-0.75"},{"rt":1644.3949999520555,"stimulus":"audio/actual/s8-lecture-10_jean_saigne_beaucoup-10_cut1norm.mp3","button_pressed":"0","test_part":"test","phrase":"10","condition":"lecture","subject":"s8","trial_type":"audio-button-response","trial_index":153,"time_elapsed":198270,"internal_node_id":"0.0-1.0-0.76"},{"rt":2630.295000039041,"stimulus":"audio/actual/s3-blind-10bis_jenseigne_beaucoup.mp3","button_pressed":"1","test_part":"test","phrase":"10bis","condition":"blind","subject":"s3","trial_type":"audio-button-response","trial_index":155,"time_elapsed":201014,"internal_node_id":"0.0-1.0-0.77"},{"rt":2568.199999979697,"stimulus":"audio/actual/s9-lecture-10bis_jenseigne_beaucoup-2_cut1norm.mp3","button_pressed":"1","test_part":"test","phrase":"10bis","condition":"lecture","subject":"s9","trial_type":"audio-button-response","trial_index":157,"time_elapsed":203662,"internal_node_id":"0.0-1.0-0.78"},{"rt":1925.7400000933558,"stimulus":"audio/actual/s2-lecture-10_jean_saigne_beaucoup-7_cut1norm.mp3","button_pressed":"0","test_part":"test","phrase":"10","condition":"lecture","subject":"s2","trial_type":"audio-button-response","trial_index":159,"time_elapsed":205694,"internal_node_id":"0.0-1.0-0.79"}]