[{"rt":3454.7100000054343,"stimulus":"audio/actual/s10-guide-10bis_jenseigne_beaucoup.mp3","button_pressed":"0","test_part":"test","phrase":"10bis","condition":"guide","subject":"s10","trial_type":"audio-button-response","trial_index":1,"time_elapsed":7075,"internal_node_id":"0.0-1.0-0.0"},{"rt":2450.135000006412,"stimulus":"audio/actual/s7-lecture-10_jean_saigne_beaucoup-8_cut1norm.mp3","button_pressed":"0","test_part":"test","phrase":"10","condition":"lecture","subject":"s7","trial_type":"audio-button-response","trial_index":3,"time_elapsed":10957,"internal_node_id":"0.0-1.0-0.1"},{"rt":2245.3050000040093,"stimulus":"audio/actual/s4-guide-10bis_jenseigne_beaucoup.mp3","button_pressed":"1","test_part":"test","phrase":"10bis","condition":"guide","subject":"s4","trial_type":"audio-button-response","trial_index":5,"time_elapsed":14204,"internal_node_id":"0.0-1.0-0.2"},{"rt":2469.549999994342,"stimulus":"audio/actual/s6-blind-10bis_jenseigne_beaucoup.mp3","button_pressed":"0","test_part":"test","phrase":"10bis","condition":"blind","subject":"s6","trial_type":"audio-button-response","trial_index":7,"time_elapsed":17684,"internal_node_id":"0.0-1.0-0.3"},{"rt":2011.769999997341,"stimulus":"audio/actual/s8-guide-10_jean_saigne_beaucoup.mp3","button_pressed":"0","test_part":"test","phrase":"10","condition":"guide","subject":"s8","trial_type":"audio-button-response","trial_index":9,"time_elapsed":20546,"internal_node_id":"0.0-1.0-0.4"},{"rt":3149.6699999988778,"stimulus":"audio/actual/s3-imitation-10_jean_saigne_beaucoup-2_cut1norm.mp3","button_pressed":"0","test_part":"test","phrase":"10","condition":"imitation","subject":"s3","trial_type":"audio-button-response","trial_index":11,"time_elapsed":24325,"internal_node_id":"0.0-1.0-0.5"},{"rt":2631.2500000058208,"stimulus":"audio/actual/s2-guide-10_jean_saigne_beaucoup.mp3","button_pressed":"0","test_part":"test","phrase":"10","condition":"guide","subject":"s2","trial_type":"audio-button-response","trial_index":13,"time_elapsed":27783,"internal_node_id":"0.0-1.0-0.6"},{"rt":2591.165000005276,"stimulus":"audio/actual/s6-guide-10bis_jenseigne_beaucoup.mp3","button_pressed":"1","test_part":"test","phrase":"10bis","condition":"guide","subject":"s6","trial_type":"audio-button-response","trial_index":15,"time_elapsed":37326,"internal_node_id":"0.0-1.0-0.7"},{"rt":2645.9849999955622,"stimulus":"audio/actual/s3-blind-10bis_jenseigne_beaucoup.mp3","button_pressed":"1","test_part":"test","phrase":"10bis","condition":"blind","subject":"s3","trial_type":"audio-button-response","trial_index":17,"time_elapsed":40703,"internal_node_id":"0.0-1.0-0.8"},{"rt":1970.724999991944,"stimulus":"audio/actual/s7-guide-10_jean_saigne_beaucoup.mp3","button_pressed":"1","test_part":"test","phrase":"10","condition":"guide","subject":"s7","trial_type":"audio-button-response","trial_index":19,"time_elapsed":43344,"internal_node_id":"0.0-1.0-0.9"},{"rt":2521.6549999895506,"stimulus":"audio/actual/s6-imitation-10_jean_saigne_beaucoup-5_cut1norm.mp3","button_pressed":"0","test_part":"test","phrase":"10","condition":"imitation","subject":"s6","trial_type":"audio-button-response","trial_index":21,"time_elapsed":47706,"internal_node_id":"0.0-1.0-0.10"},{"rt":2384.5000000001164,"stimulus":"audio/actual/s2-lecture-10bis_jenseigne_beaucoup-6_cut1norm.mp3","button_pressed":"1","test_part":"test","phrase":"10bis","condition":"lecture","subject":"s2","trial_type":"audio-button-response","trial_index":23,"time_elapsed":50735,"internal_node_id":"0.0-1.0-0.11"},{"rt":2070.179999995162,"stimulus":"audio/actual/s4-lecture-10_jean_saigne_beaucoup-1_cut1norm.mp3","button_pressed":"0","test_part":"test","phrase":"10","condition":"lecture","subject":"s4","trial_type":"audio-button-response","trial_index":25,"time_elapsed":53595,"internal_node_id":"0.0-1.0-0.12"},{"rt":3702.0099999936065,"stimulus":"audio/actual/s9-guide-10_jean_saigne_beaucoup.mp3","button_pressed":"0","test_part":"test","phrase":"10","condition":"guide","subject":"s9","trial_type":"audio-button-response","trial_index":27,"time_elapsed":58139,"internal_node_id":"0.0-1.0-0.13"},{"rt":2063.5049999982584,"stimulus":"audio/actual/s10-imitation-10bis_jenseigne_beaucoup-10_cut1norm.mp3","button_pressed":"1","test_part":"test","phrase":"10bis","condition":"imitation","subject":"s10","trial_type":"audio-button-response","trial_index":29,"time_elapsed":60852,"internal_node_id":"0.0-1.0-0.14"},{"rt":3191.7600000015227,"stimulus":"audio/actual/s4-blind-10_jean_saigne_beaucoup.mp3","button_pressed":"1","test_part":"test","phrase":"10","condition":"blind","subject":"s4","trial_type":"audio-button-response","trial_index":31,"time_elapsed":64712,"internal_node_id":"0.0-1.0-0.15"},{"rt":3941.3299999869196,"stimulus":"audio/actual/s8-imitation-10_jean_saigne_beaucoup-10_cut1norm.mp3","button_pressed":"0","test_part":"test","phrase":"10","condition":"imitation","subject":"s8","trial_type":"audio-button-response","trial_index":33,"time_elapsed":69294,"internal_node_id":"0.0-1.0-0.16"},{"rt":3436.5149999939604,"stimulus":"audio/actual/s9-blind-10_jean_saigne_beaucoup.mp3","button_pressed":"0","test_part":"test","phrase":"10","condition":"blind","subject":"s9","trial_type":"audio-button-response","trial_index":35,"time_elapsed":73499,"internal_node_id":"0.0-1.0-0.17"},{"rt":4311.455000002752,"stimulus":"audio/actual/s1-guide-10_jean_saigne_beaucoup.mp3","button_pressed":"0","test_part":"test","phrase":"10","condition":"guide","subject":"s1","trial_type":"audio-button-response","trial_index":37,"time_elapsed":78403,"internal_node_id":"0.0-1.0-0.18"},{"rt":2213.385000010021,"stimulus":"audio/actual/s8-imitation-10bis_jenseigne_beaucoup-11_cut1norm.mp3","button_pressed":"1","test_part":"test","phrase":"10bis","condition":"imitation","subject":"s8","trial_type":"audio-button-response","trial_index":39,"time_elapsed":81275,"internal_node_id":"0.0-1.0-0.19"},{"rt":2739.4050000002608,"stimulus":"audio/actual/s10-blind-10bis_jenseigne_beaucoup.mp3","button_pressed":"1","test_part":"test","phrase":"10bis","condition":"blind","subject":"s10","trial_type":"audio-button-response","trial_index":41,"time_elapsed":84749,"internal_node_id":"0.0-1.0-0.20"},{"rt":2539.7349999984726,"stimulus":"audio/actual/s6-blind-10_jean_saigne_beaucoup.mp3","button_pressed":"1","test_part":"test","phrase":"10","condition":"blind","subject":"s6","trial_type":"audio-button-response","trial_index":43,"time_elapsed":87917,"internal_node_id":"0.0-1.0-0.21"},{"rt":2119.414999993751,"stimulus":"audio/actual/s4-imitation-10_jean_saigne_beaucoup-1_cut1norm.mp3","button_pressed":"0","test_part":"test","phrase":"10","condition":"imitation","subject":"s4","trial_type":"audio-button-response","trial_index":45,"time_elapsed":90711,"internal_node_id":"0.0-1.0-0.22"},{"rt":2386.7150000005495,"stimulus":"audio/actual/s7-blind-10bis_jenseigne_beaucoup.mp3","button_pressed":"1","test_part":"test","phrase":"10bis","condition":"blind","subject":"s7","trial_type":"audio-button-response","trial_index":47,"time_elapsed":93778,"internal_node_id":"0.0-1.0-0.23"},{"rt":2595.675000004121,"stimulus":"audio/actual/s3-guide-10_jean_saigne_beaucoup.mp3","button_pressed":"1","test_part":"test","phrase":"10","condition":"guide","subject":"s3","trial_type":"audio-button-response","trial_index":49,"time_elapsed":97028,"internal_node_id":"0.0-1.0-0.24"},{"rt":1900.4649999988033,"stimulus":"audio/actual/s6-imitation-10bis_jenseigne_beaucoup-4_cut1norm.mp3","button_pressed":"1","test_part":"test","phrase":"10bis","condition":"imitation","subject":"s6","trial_type":"audio-button-response","trial_index":51,"time_elapsed":99560,"internal_node_id":"0.0-1.0-0.25"},{"rt":1803.9500000013504,"stimulus":"audio/actual/s9-lecture-10bis_jenseigne_beaucoup-2_cut1norm.mp3","button_pressed":"1","test_part":"test","phrase":"10bis","condition":"lecture","subject":"s9","trial_type":"audio-button-response","trial_index":53,"time_elapsed":101946,"internal_node_id":"0.0-1.0-0.26"},{"rt":1461.750000002212,"stimulus":"audio/actual/s4-imitation-10bis_jenseigne_beaucoup-0_cut1norm.mp3","button_pressed":"1","test_part":"test","phrase":"10bis","condition":"imitation","subject":"s4","trial_type":"audio-button-response","trial_index":55,"time_elapsed":103997,"internal_node_id":"0.0-1.0-0.27"},{"rt":1766.5050000068732,"stimulus":"audio/actual/s1-lecture-10bis_jenseigne_beaucoup-3_cut1norm.mp3","button_pressed":"1","test_part":"test","phrase":"10bis","condition":"lecture","subject":"s1","trial_type":"audio-button-response","trial_index":57,"time_elapsed":106380,"internal_node_id":"0.0-1.0-0.28"},{"rt":1556.4099999901373,"stimulus":"audio/actual/s5-lecture-10bis_jenseigne_beaucoup-4_cut1norm.mp3","button_pressed":"1","test_part":"test","phrase":"10bis","condition":"lecture","subject":"s5","trial_type":"audio-button-response","trial_index":59,"time_elapsed":108478,"internal_node_id":"0.0-1.0-0.29"},{"rt":2979.345000014291,"stimulus":"audio/actual/s3-imitation-10bis_jenseigne_beaucoup-3_cut1norm.mp3","button_pressed":"1","test_part":"test","phrase":"10bis","condition":"imitation","subject":"s3","trial_type":"audio-button-response","trial_index":61,"time_elapsed":112032,"internal_node_id":"0.0-1.0-0.30"},{"rt":1602.710000006482,"stimulus":"audio/actual/s9-guide-10bis_jenseigne_beaucoup.mp3","button_pressed":"1","test_part":"test","phrase":"10bis","condition":"guide","subject":"s9","trial_type":"audio-button-response","trial_index":63,"time_elapsed":114211,"internal_node_id":"0.0-1.0-0.31"},{"rt":1546.0200000088662,"stimulus":"audio/actual/s8-blind-10bis_jenseigne_beaucoup.mp3","button_pressed":"1","test_part":"test","phrase":"10bis","condition":"blind","subject":"s8","trial_type":"audio-button-response","trial_index":65,"time_elapsed":116339,"internal_node_id":"0.0-1.0-0.32"},{"rt":2344.3499999993946,"stimulus":"audio/actual/s5-lecture-10_jean_saigne_beaucoup-5_cut1norm.mp3","button_pressed":"0","test_part":"test","phrase":"10","condition":"lecture","subject":"s5","trial_type":"audio-button-response","trial_index":67,"time_elapsed":119280,"internal_node_id":"0.0-1.0-0.33"},{"rt":3397.1049999963725,"stimulus":"audio/actual/s7-imitation-10bis_jenseigne_beaucoup-2_cut1norm.mp3","button_pressed":"0","test_part":"test","phrase":"10bis","condition":"imitation","subject":"s7","trial_type":"audio-button-response","trial_index":69,"time_elapsed":123279,"internal_node_id":"0.0-1.0-0.34"},{"rt":2135.500000003958,"stimulus":"audio/actual/s8-lecture-10bis_jenseigne_beaucoup-11_cut1norm.mp3","button_pressed":"1","test_part":"test","phrase":"10bis","condition":"lecture","subject":"s8","trial_type":"audio-button-response","trial_index":71,"time_elapsed":126001,"internal_node_id":"0.0-1.0-0.35"},{"rt":1702.355000001262,"stimulus":"audio/actual/s2-lecture-10_jean_saigne_beaucoup-7_cut1norm.mp3","button_pressed":"0","test_part":"test","phrase":"10","condition":"lecture","subject":"s2","trial_type":"audio-button-response","trial_index":73,"time_elapsed":128288,"internal_node_id":"0.0-1.0-0.36"},{"rt":2587.360000004992,"stimulus":"audio/actual/s1-blind-10_jean_saigne_beaucoup.mp3","button_pressed":"1","test_part":"test","phrase":"10","condition":"blind","subject":"s1","trial_type":"audio-button-response","trial_index":75,"time_elapsed":131418,"internal_node_id":"0.0-1.0-0.37"},{"rt":2375.4600000102073,"stimulus":"audio/actual/s4-blind-10bis_jenseigne_beaucoup.mp3","button_pressed":"1","test_part":"test","phrase":"10bis","condition":"blind","subject":"s4","trial_type":"audio-button-response","trial_index":77,"time_elapsed":134329,"internal_node_id":"0.0-1.0-0.38"},{"rt":1452.9599999950733,"stimulus":"audio/actual/s7-guide-10bis_jenseigne_beaucoup.mp3","button_pressed":"1","test_part":"test","phrase":"10bis","condition":"guide","subject":"s7","trial_type":"audio-button-response","trial_index":79,"time_elapsed":136206,"internal_node_id":"0.0-1.0-0.39"},{"rt":1674.059999990277,"stimulus":"audio/actual/s2-guide-10bis_jenseigne_beaucoup.mp3","button_pressed":"1","test_part":"test","phrase":"10bis","condition":"guide","subject":"s2","trial_type":"audio-button-response","trial_index":81,"time_elapsed":138444,"internal_node_id":"0.0-1.0-0.40"},{"rt":1440.2549999940675,"stimulus":"audio/actual/s5-blind-10bis_jenseigne_beaucoup.mp3","button_pressed":"1","test_part":"test","phrase":"10bis","condition":"blind","subject":"s5","trial_type":"audio-button-response","trial_index":83,"time_elapsed":140359,"internal_node_id":"0.0-1.0-0.41"},{"rt":1373.1899999984307,"stimulus":"audio/actual/s9-imitation-10bis_jenseigne_beaucoup-5_cut1norm.mp3","button_pressed":"1","test_part":"test","phrase":"10bis","condition":"imitation","subject":"s9","trial_type":"audio-button-response","trial_index":85,"time_elapsed":142196,"internal_node_id":"0.0-1.0-0.42"},{"rt":1964.9649999919347,"stimulus":"audio/actual/s5-blind-10_jean_saigne_beaucoup.mp3","button_pressed":"0","test_part":"test","phrase":"10","condition":"blind","subject":"s5","trial_type":"audio-button-response","trial_index":87,"time_elapsed":144710,"internal_node_id":"0.0-1.0-0.43"},{"rt":2075.3549999935785,"stimulus":"audio/actual/s6-lecture-10bis_jenseigne_beaucoup-0_cut1norm.mp3","button_pressed":"1","test_part":"test","phrase":"10bis","condition":"lecture","subject":"s6","trial_type":"audio-button-response","trial_index":89,"time_elapsed":147353,"internal_node_id":"0.0-1.0-0.44"},{"rt":1492.6400000113063,"stimulus":"audio/actual/s5-guide-10bis_jenseigne_beaucoup.mp3","button_pressed":"1","test_part":"test","phrase":"10bis","condition":"guide","subject":"s5","trial_type":"audio-button-response","trial_index":91,"time_elapsed":149333,"internal_node_id":"0.0-1.0-0.45"},{"rt":1641.0150000010617,"stimulus":"audio/actual/s7-imitation-10_jean_saigne_beaucoup-3_cut1norm.mp3","button_pressed":"0","test_part":"test","phrase":"10","condition":"imitation","subject":"s7","trial_type":"audio-button-response","trial_index":93,"time_elapsed":151462,"internal_node_id":"0.0-1.0-0.46"},{"rt":2122.044999996433,"stimulus":"audio/actual/s3-lecture-10_jean_saigne_beaucoup-2_cut1norm.mp3","button_pressed":"0","test_part":"test","phrase":"10","condition":"lecture","subject":"s3","trial_type":"audio-button-response","trial_index":95,"time_elapsed":154116,"internal_node_id":"0.0-1.0-0.47"},{"rt":1956.4799999934621,"stimulus":"audio/actual/s7-lecture-10bis_jenseigne_beaucoup-9_cut1norm.mp3","button_pressed":"1","test_part":"test","phrase":"10bis","condition":"lecture","subject":"s7","trial_type":"audio-button-response","trial_index":97,"time_elapsed":156997,"internal_node_id":"0.0-1.0-0.48"},{"rt":1969.7750000050291,"stimulus":"audio/actual/s4-lecture-10bis_jenseigne_beaucoup-0_cut1norm.mp3","button_pressed":"1","test_part":"test","phrase":"10bis","condition":"lecture","subject":"s4","trial_type":"audio-button-response","trial_index":99,"time_elapsed":159620,"internal_node_id":"0.0-1.0-0.49"},{"rt":1639.8149999877205,"stimulus":"audio/actual/s9-blind-10bis_jenseigne_beaucoup.mp3","button_pressed":"1","test_part":"test","phrase":"10bis","condition":"blind","subject":"s9","trial_type":"audio-button-response","trial_index":101,"time_elapsed":161758,"internal_node_id":"0.0-1.0-0.50"},{"rt":2994.9300000007497,"stimulus":"audio/actual/s4-guide-10_jean_saigne_beaucoup.mp3","button_pressed":"1","test_part":"test","phrase":"10","condition":"guide","subject":"s4","trial_type":"audio-button-response","trial_index":103,"time_elapsed":165034,"internal_node_id":"0.0-1.0-0.51"},{"rt":1889.8300000000745,"stimulus":"audio/actual/s2-blind-10bis_jenseigne_beaucoup.mp3","button_pressed":"1","test_part":"test","phrase":"10bis","condition":"blind","subject":"s2","trial_type":"audio-button-response","trial_index":105,"time_elapsed":167380,"internal_node_id":"0.0-1.0-0.52"},{"rt":1737.98999999417,"stimulus":"audio/actual/s1-imitation-10bis_jenseigne_beaucoup-10_cut1norm.mp3","button_pressed":"1","test_part":"test","phrase":"10bis","condition":"imitation","subject":"s1","trial_type":"audio-button-response","trial_index":107,"time_elapsed":169689,"internal_node_id":"0.0-1.0-0.53"},{"rt":1697.5899999961257,"stimulus":"audio/actual/s6-guide-10_jean_saigne_beaucoup.mp3","button_pressed":"0","test_part":"test","phrase":"10","condition":"guide","subject":"s6","trial_type":"audio-button-response","trial_index":109,"time_elapsed":171747,"internal_node_id":"0.0-1.0-0.54"},{"rt":3553.794999999809,"stimulus":"audio/actual/s1-guide-10bis_jenseigne_beaucoup.mp3","button_pressed":"0","test_part":"test","phrase":"10bis","condition":"guide","subject":"s1","trial_type":"audio-button-response","trial_index":111,"time_elapsed":175805,"internal_node_id":"0.0-1.0-0.55"},{"rt":1980.2449999988312,"stimulus":"audio/actual/s5-guide-10_jean_saigne_beaucoup.mp3","button_pressed":"0","test_part":"test","phrase":"10","condition":"guide","subject":"s5","trial_type":"audio-button-response","trial_index":113,"time_elapsed":178597,"internal_node_id":"0.0-1.0-0.56"},{"rt":3389.1100000037113,"stimulus":"audio/actual/s1-blind-10bis_jenseigne_beaucoup.mp3","button_pressed":"0","test_part":"test","phrase":"10bis","condition":"blind","subject":"s1","trial_type":"audio-button-response","trial_index":115,"time_elapsed":182359,"internal_node_id":"0.0-1.0-0.57"},{"rt":1814.6649999980582,"stimulus":"audio/actual/s10-imitation-10_jean_saigne_beaucoup-11_cut1norm.mp3","button_pressed":"0","test_part":"test","phrase":"10","condition":"imitation","subject":"s10","trial_type":"audio-button-response","trial_index":117,"time_elapsed":184714,"internal_node_id":"0.0-1.0-0.58"},{"rt":1949.240000001737,"stimulus":"audio/actual/s2-imitation-10bis_jenseigne_beaucoup-5_cut1norm.mp3","button_pressed":"1","test_part":"test","phrase":"10bis","condition":"imitation","subject":"s2","trial_type":"audio-button-response","trial_index":119,"time_elapsed":187150,"internal_node_id":"0.0-1.0-0.59"},{"rt":1528.6449999985052,"stimulus":"audio/actual/s10-lecture-10_jean_saigne_beaucoup-10_cut1norm.mp3","button_pressed":"1","test_part":"test","phrase":"10","condition":"lecture","subject":"s10","trial_type":"audio-button-response","trial_index":121,"time_elapsed":189191,"internal_node_id":"0.0-1.0-0.60"},{"rt":1943.8050000026124,"stimulus":"audio/actual/s2-blind-10_jean_saigne_beaucoup.mp3","button_pressed":"1","test_part":"test","phrase":"10","condition":"blind","subject":"s2","trial_type":"audio-button-response","trial_index":123,"time_elapsed":191645,"internal_node_id":"0.0-1.0-0.61"},{"rt":2094.6249999979045,"stimulus":"audio/actual/s9-lecture-10_jean_saigne_beaucoup-3_cut1norm.mp3","button_pressed":"0","test_part":"test","phrase":"10","condition":"lecture","subject":"s9","trial_type":"audio-button-response","trial_index":125,"time_elapsed":194080,"internal_node_id":"0.0-1.0-0.62"},{"rt":30941.00000000617,"stimulus":"audio/actual/s10-blind-10_jean_saigne_beaucoup.mp3","button_pressed":"2","test_part":"test","phrase":"10","condition":"blind","subject":"s10","trial_type":"audio-button-response","trial_index":127,"time_elapsed":225794,"internal_node_id":"0.0-1.0-0.63"},{"rt":4112.150000000838,"stimulus":"audio/actual/s10-blind-10_jean_saigne_beaucoup.mp3","button_pressed":"0","test_part":"test","phrase":"10","condition":"blind","subject":"s10","trial_type":"audio-button-response","trial_index":128,"time_elapsed":229911,"internal_node_id":"0.0-1.0-1.63-0.63"},{"rt":1962.534999998752,"stimulus":"audio/actual/s6-lecture-10_jean_saigne_beaucoup-1_cut1norm.mp3","button_pressed":"0","test_part":"test","phrase":"10","condition":"lecture","subject":"s6","trial_type":"audio-button-response","trial_index":130,"time_elapsed":233079,"internal_node_id":"0.0-1.0-0.64"},{"rt":1665.6950000033248,"stimulus":"audio/actual/s8-lecture-10_jean_saigne_beaucoup-10_cut1norm.mp3","button_pressed":"0","test_part":"test","phrase":"10","condition":"lecture","subject":"s8","trial_type":"audio-button-response","trial_index":132,"time_elapsed":235119,"internal_node_id":"0.0-1.0-0.65"},{"rt":2368.224999998347,"stimulus":"audio/actual/s5-imitation-10bis_jenseigne_beaucoup-11_cut1norm.mp3","button_pressed":"1","test_part":"test","phrase":"10bis","condition":"imitation","subject":"s5","trial_type":"audio-button-response","trial_index":134,"time_elapsed":237672,"internal_node_id":"0.0-1.0-0.66"},{"rt":2689.975000001141,"stimulus":"audio/actual/s9-imitation-10_jean_saigne_beaucoup-4_cut1norm.mp3","button_pressed":"0","test_part":"test","phrase":"10","condition":"imitation","subject":"s9","trial_type":"audio-button-response","trial_index":136,"time_elapsed":240573,"internal_node_id":"0.0-1.0-0.67"},{"rt":3055.850000004284,"stimulus":"audio/actual/s1-lecture-10_jean_saigne_beaucoup-2_cut1norm.mp3","button_pressed":"1","test_part":"test","phrase":"10","condition":"lecture","subject":"s1","trial_type":"audio-button-response","trial_index":138,"time_elapsed":243900,"internal_node_id":"0.0-1.0-0.68"},{"rt":2054.180000006454,"stimulus":"audio/actual/s3-blind-10_jean_saigne_beaucoup.mp3","button_pressed":"0","test_part":"test","phrase":"10","condition":"blind","subject":"s3","trial_type":"audio-button-response","trial_index":140,"time_elapsed":246387,"internal_node_id":"0.0-1.0-0.69"},{"rt":3177.4899999873014,"stimulus":"audio/actual/s10-guide-10_jean_saigne_beaucoup.mp3","button_pressed":"0","test_part":"test","phrase":"10","condition":"guide","subject":"s10","trial_type":"audio-button-response","trial_index":142,"time_elapsed":250001,"internal_node_id":"0.0-1.0-0.70"},{"rt":3035.9800000005635,"stimulus":"audio/actual/s7-blind-10_jean_saigne_beaucoup.mp3","button_pressed":"0","test_part":"test","phrase":"10","condition":"blind","subject":"s7","trial_type":"audio-button-response","trial_index":144,"time_elapsed":253216,"internal_node_id":"0.0-1.0-0.71"},{"rt":1636.6050000069663,"stimulus":"audio/actual/s2-imitation-10_jean_saigne_beaucoup-4_cut1norm.mp3","button_pressed":"0","test_part":"test","phrase":"10","condition":"imitation","subject":"s2","trial_type":"audio-button-response","trial_index":146,"time_elapsed":255594,"internal_node_id":"0.0-1.0-0.72"},{"rt":2645.9350000077393,"stimulus":"audio/actual/s8-guide-10bis_jenseigne_beaucoup.mp3","button_pressed":"1","test_part":"test","phrase":"10bis","condition":"guide","subject":"s8","trial_type":"audio-button-response","trial_index":148,"time_elapsed":258831,"internal_node_id":"0.0-1.0-0.73"},{"rt":3671.6449999948964,"stimulus":"audio/actual/s3-lecture-10bis_jenseigne_beaucoup-3_cut1norm.mp3","button_pressed":"1","test_part":"test","phrase":"10bis","condition":"lecture","subject":"s3","trial_type":"audio-button-response","trial_index":150,"time_elapsed":262723,"internal_node_id":"0.0-1.0-0.74"},{"rt":2564.410000006319,"stimulus":"audio/actual/s8-blind-10_jean_saigne_beaucoup.mp3","button_pressed":"0","test_part":"test","phrase":"10","condition":"blind","subject":"s8","trial_type":"audio-button-response","trial_index":152,"time_elapsed":265603,"internal_node_id":"0.0-1.0-0.75"},{"rt":1682.0100000040838,"stimulus":"audio/actual/s1-imitation-10_jean_saigne_beaucoup-11_cut1norm.mp3","button_pressed":"0","test_part":"test","phrase":"10","condition":"imitation","subject":"s1","trial_type":"audio-button-response","trial_index":154,"time_elapsed":267454,"internal_node_id":"0.0-1.0-0.76"},{"rt":3649.57000000868,"stimulus":"audio/actual/s10-lecture-10bis_jenseigne_beaucoup-11_cut1norm.mp3","button_pressed":"1","test_part":"test","phrase":"10bis","condition":"lecture","subject":"s10","trial_type":"audio-button-response","trial_index":156,"time_elapsed":271217,"internal_node_id":"0.0-1.0-0.77"},{"rt":3151.320000004489,"stimulus":"audio/actual/s3-guide-10bis_jenseigne_beaucoup.mp3","button_pressed":"0","test_part":"test","phrase":"10bis","condition":"guide","subject":"s3","trial_type":"audio-button-response","trial_index":158,"time_elapsed":274552,"internal_node_id":"0.0-1.0-0.78"},{"rt":1814.024999999674,"stimulus":"audio/actual/s5-imitation-10_jean_saigne_beaucoup-10_cut1norm.mp3","button_pressed":"0","test_part":"test","phrase":"10","condition":"imitation","subject":"s5","trial_type":"audio-button-response","trial_index":160,"time_elapsed":276483,"internal_node_id":"0.0-1.0-0.79"}]