[{"rt":8692.555000016,"stimulus":"audio/actual/s10-blind-10_jean_saigne_beaucoup.mp3","button_pressed":"0","test_part":"test","phrase":"10","condition":"blind","subject":"s10","trial_type":"audio-button-response","trial_index":1,"time_elapsed":11409,"internal_node_id":"0.0-1.0-0.0"},{"rt":4765.660000004573,"stimulus":"audio/actual/s2-lecture-10_jean_saigne_beaucoup-7_cut1norm.mp3","button_pressed":"0","test_part":"test","phrase":"10","condition":"lecture","subject":"s2","trial_type":"audio-button-response","trial_index":3,"time_elapsed":17156,"internal_node_id":"0.0-1.0-0.1"},{"rt":6327.315000002272,"stimulus":"audio/actual/s10-guide-10bis_jenseigne_beaucoup.mp3","button_pressed":"1","test_part":"test","phrase":"10bis","condition":"guide","subject":"s10","trial_type":"audio-button-response","trial_index":5,"time_elapsed":24479,"internal_node_id":"0.0-1.0-0.2"},{"rt":7195.054999989225,"stimulus":"audio/actual/s2-guide-10_jean_saigne_beaucoup.mp3","button_pressed":"0","test_part":"test","phrase":"10","condition":"guide","subject":"s2","trial_type":"audio-button-response","trial_index":7,"time_elapsed":34404,"internal_node_id":"0.0-1.0-0.3"},{"rt":2990.909999993164,"stimulus":"audio/actual/s6-guide-10bis_jenseigne_beaucoup.mp3","button_pressed":"1","test_part":"test","phrase":"10bis","condition":"guide","subject":"s6","trial_type":"audio-button-response","trial_index":9,"time_elapsed":38146,"internal_node_id":"0.0-1.0-0.4"},{"rt":14824.280000000726,"stimulus":"audio/actual/s10-imitation-10_jean_saigne_beaucoup-11_cut1norm.mp3","button_pressed":"0","test_part":"test","phrase":"10","condition":"imitation","subject":"s10","trial_type":"audio-button-response","trial_index":11,"time_elapsed":53573,"internal_node_id":"0.0-1.0-0.5"},{"rt":10256.385000015143,"stimulus":"audio/actual/s1-lecture-10_jean_saigne_beaucoup-2_cut1norm.mp3","button_pressed":"0","test_part":"test","phrase":"10","condition":"lecture","subject":"s1","trial_type":"audio-button-response","trial_index":13,"time_elapsed":65546,"internal_node_id":"0.0-1.0-0.6"},{"rt":2824.354999989737,"stimulus":"audio/actual/s9-lecture-10bis_jenseigne_beaucoup-2_cut1norm.mp3","button_pressed":"1","test_part":"test","phrase":"10bis","condition":"lecture","subject":"s9","trial_type":"audio-button-response","trial_index":15,"time_elapsed":69253,"internal_node_id":"0.0-1.0-0.7"},{"rt":8438.430000009248,"stimulus":"audio/actual/s3-guide-10_jean_saigne_beaucoup.mp3","button_pressed":"1","test_part":"test","phrase":"10","condition":"guide","subject":"s3","trial_type":"audio-button-response","trial_index":17,"time_elapsed":78512,"internal_node_id":"0.0-1.0-0.8"},{"rt":8427.759999991395,"stimulus":"audio/actual/s9-blind-10_jean_saigne_beaucoup.mp3","button_pressed":"2","test_part":"test","phrase":"10","condition":"blind","subject":"s9","trial_type":"audio-button-response","trial_index":19,"time_elapsed":87890,"internal_node_id":"0.0-1.0-0.9"},{"rt":4530.209999997169,"stimulus":"audio/actual/s9-blind-10_jean_saigne_beaucoup.mp3","button_pressed":"0","test_part":"test","phrase":"10","condition":"blind","subject":"s9","trial_type":"audio-button-response","trial_index":20,"time_elapsed":92422,"internal_node_id":"0.0-1.0-1.9-0.9"},{"rt":3644.144999998389,"stimulus":"audio/actual/s8-guide-10_jean_saigne_beaucoup.mp3","button_pressed":"0","test_part":"test","phrase":"10","condition":"guide","subject":"s8","trial_type":"audio-button-response","trial_index":22,"time_elapsed":97019,"internal_node_id":"0.0-1.0-0.10"},{"rt":3151.6049999918323,"stimulus":"audio/actual/s4-lecture-10bis_jenseigne_beaucoup-0_cut1norm.mp3","button_pressed":"1","test_part":"test","phrase":"10bis","condition":"lecture","subject":"s4","trial_type":"audio-button-response","trial_index":24,"time_elapsed":101004,"internal_node_id":"0.0-1.0-0.11"},{"rt":4374.669999990147,"stimulus":"audio/actual/s2-guide-10bis_jenseigne_beaucoup.mp3","button_pressed":"0","test_part":"test","phrase":"10bis","condition":"guide","subject":"s2","trial_type":"audio-button-response","trial_index":26,"time_elapsed":106087,"internal_node_id":"0.0-1.0-0.12"},{"rt":4734.819999983301,"stimulus":"audio/actual/s6-lecture-10_jean_saigne_beaucoup-1_cut1norm.mp3","button_pressed":"0","test_part":"test","phrase":"10","condition":"lecture","subject":"s6","trial_type":"audio-button-response","trial_index":28,"time_elapsed":111678,"internal_node_id":"0.0-1.0-0.13"},{"rt":3238.1049999967217,"stimulus":"audio/actual/s1-guide-10_jean_saigne_beaucoup.mp3","button_pressed":"0","test_part":"test","phrase":"10","condition":"guide","subject":"s1","trial_type":"audio-button-response","trial_index":30,"time_elapsed":115597,"internal_node_id":"0.0-1.0-0.14"},{"rt":2869.459999987157,"stimulus":"audio/actual/s6-guide-10_jean_saigne_beaucoup.mp3","button_pressed":"1","test_part":"test","phrase":"10","condition":"guide","subject":"s6","trial_type":"audio-button-response","trial_index":32,"time_elapsed":118983,"internal_node_id":"0.0-1.0-0.15"},{"rt":3646.1100000014994,"stimulus":"audio/actual/s4-blind-10bis_jenseigne_beaucoup.mp3","button_pressed":"1","test_part":"test","phrase":"10bis","condition":"blind","subject":"s4","trial_type":"audio-button-response","trial_index":34,"time_elapsed":123214,"internal_node_id":"0.0-1.0-0.16"},{"rt":3439.1649999888614,"stimulus":"audio/actual/s8-blind-10bis_jenseigne_beaucoup.mp3","button_pressed":"0","test_part":"test","phrase":"10bis","condition":"blind","subject":"s8","trial_type":"audio-button-response","trial_index":36,"time_elapsed":127352,"internal_node_id":"0.0-1.0-0.17"},{"rt":3386.655000009341,"stimulus":"audio/actual/s7-imitation-10bis_jenseigne_beaucoup-2_cut1norm.mp3","button_pressed":"0","test_part":"test","phrase":"10bis","condition":"imitation","subject":"s7","trial_type":"audio-button-response","trial_index":38,"time_elapsed":131508,"internal_node_id":"0.0-1.0-0.18"},{"rt":4050.8600000175647,"stimulus":"audio/actual/s1-imitation-10_jean_saigne_beaucoup-11_cut1norm.mp3","button_pressed":"1","test_part":"test","phrase":"10","condition":"imitation","subject":"s1","trial_type":"audio-button-response","trial_index":40,"time_elapsed":135961,"internal_node_id":"0.0-1.0-0.19"},{"rt":4374.070000019856,"stimulus":"audio/actual/s5-blind-10bis_jenseigne_beaucoup.mp3","button_pressed":"1","test_part":"test","phrase":"10bis","condition":"blind","subject":"s5","trial_type":"audio-button-response","trial_index":42,"time_elapsed":140826,"internal_node_id":"0.0-1.0-0.20"},{"rt":11080.134999996517,"stimulus":"audio/actual/s3-blind-10_jean_saigne_beaucoup.mp3","button_pressed":"0","test_part":"test","phrase":"10","condition":"blind","subject":"s3","trial_type":"audio-button-response","trial_index":44,"time_elapsed":152544,"internal_node_id":"0.0-1.0-0.21"},{"rt":1779.8449999827426,"stimulus":"audio/actual/s5-lecture-10bis_jenseigne_beaucoup-4_cut1norm.mp3","button_pressed":"1","test_part":"test","phrase":"10bis","condition":"lecture","subject":"s5","trial_type":"audio-button-response","trial_index":46,"time_elapsed":154793,"internal_node_id":"0.0-1.0-0.22"},{"rt":22145.724999980303,"stimulus":"audio/actual/s8-lecture-10bis_jenseigne_beaucoup-11_cut1norm.mp3","button_pressed":"2","test_part":"test","phrase":"10bis","condition":"lecture","subject":"s8","trial_type":"audio-button-response","trial_index":48,"time_elapsed":177937,"internal_node_id":"0.0-1.0-0.23"},{"rt":3038.4049999993294,"stimulus":"audio/actual/s8-lecture-10bis_jenseigne_beaucoup-11_cut1norm.mp3","button_pressed":"1","test_part":"test","phrase":"10bis","condition":"lecture","subject":"s8","trial_type":"audio-button-response","trial_index":49,"time_elapsed":180978,"internal_node_id":"0.0-1.0-1.23-0.23"},{"rt":3467.564999999013,"stimulus":"audio/actual/s3-lecture-10_jean_saigne_beaucoup-2_cut1norm.mp3","button_pressed":"0","test_part":"test","phrase":"10","condition":"lecture","subject":"s3","trial_type":"audio-button-response","trial_index":51,"time_elapsed":185675,"internal_node_id":"0.0-1.0-0.24"},{"rt":2290.8499999903142,"stimulus":"audio/actual/s8-blind-10_jean_saigne_beaucoup.mp3","button_pressed":"0","test_part":"test","phrase":"10","condition":"blind","subject":"s8","trial_type":"audio-button-response","trial_index":53,"time_elapsed":188377,"internal_node_id":"0.0-1.0-0.25"},{"rt":2230.340000009164,"stimulus":"audio/actual/s3-lecture-10bis_jenseigne_beaucoup-3_cut1norm.mp3","button_pressed":"0","test_part":"test","phrase":"10bis","condition":"lecture","subject":"s3","trial_type":"audio-button-response","trial_index":55,"time_elapsed":191020,"internal_node_id":"0.0-1.0-0.26"},{"rt":3236.4949999901,"stimulus":"audio/actual/s2-imitation-10bis_jenseigne_beaucoup-5_cut1norm.mp3","button_pressed":"0","test_part":"test","phrase":"10bis","condition":"imitation","subject":"s2","trial_type":"audio-button-response","trial_index":57,"time_elapsed":195320,"internal_node_id":"0.0-1.0-0.27"},{"rt":2490.7050000038,"stimulus":"audio/actual/s9-guide-10bis_jenseigne_beaucoup.mp3","button_pressed":"1","test_part":"test","phrase":"10bis","condition":"guide","subject":"s9","trial_type":"audio-button-response","trial_index":59,"time_elapsed":198211,"internal_node_id":"0.0-1.0-0.28"},{"rt":1800.6449999811593,"stimulus":"audio/actual/s10-lecture-10_jean_saigne_beaucoup-10_cut1norm.mp3","button_pressed":"1","test_part":"test","phrase":"10","condition":"lecture","subject":"s10","trial_type":"audio-button-response","trial_index":61,"time_elapsed":200921,"internal_node_id":"0.0-1.0-0.29"},{"rt":3613.2050000014715,"stimulus":"audio/actual/s3-guide-10bis_jenseigne_beaucoup.mp3","button_pressed":"0","test_part":"test","phrase":"10bis","condition":"guide","subject":"s3","trial_type":"audio-button-response","trial_index":63,"time_elapsed":204965,"internal_node_id":"0.0-1.0-0.30"},{"rt":3599.1050000011455,"stimulus":"audio/actual/s9-blind-10bis_jenseigne_beaucoup.mp3","button_pressed":"1","test_part":"test","phrase":"10bis","condition":"blind","subject":"s9","trial_type":"audio-button-response","trial_index":65,"time_elapsed":208998,"internal_node_id":"0.0-1.0-0.31"},{"rt":3191.2799999990966,"stimulus":"audio/actual/s7-guide-10_jean_saigne_beaucoup.mp3","button_pressed":"1","test_part":"test","phrase":"10","condition":"guide","subject":"s7","trial_type":"audio-button-response","trial_index":67,"time_elapsed":212859,"internal_node_id":"0.0-1.0-0.32"},{"rt":4270.489999995334,"stimulus":"audio/actual/s3-imitation-10_jean_saigne_beaucoup-2_cut1norm.mp3","button_pressed":"0","test_part":"test","phrase":"10","condition":"imitation","subject":"s3","trial_type":"audio-button-response","trial_index":69,"time_elapsed":217632,"internal_node_id":"0.0-1.0-0.33"},{"rt":4503.934999986086,"stimulus":"audio/actual/s1-blind-10_jean_saigne_beaucoup.mp3","button_pressed":"1","test_part":"test","phrase":"10","condition":"blind","subject":"s1","trial_type":"audio-button-response","trial_index":71,"time_elapsed":222507,"internal_node_id":"0.0-1.0-0.34"},{"rt":2532.0099999953527,"stimulus":"audio/actual/s9-imitation-10bis_jenseigne_beaucoup-5_cut1norm.mp3","button_pressed":"0","test_part":"test","phrase":"10bis","condition":"imitation","subject":"s9","trial_type":"audio-button-response","trial_index":73,"time_elapsed":226159,"internal_node_id":"0.0-1.0-0.35"},{"rt":2260.3050000034273,"stimulus":"audio/actual/s1-lecture-10bis_jenseigne_beaucoup-3_cut1norm.mp3","button_pressed":"1","test_part":"test","phrase":"10bis","condition":"lecture","subject":"s1","trial_type":"audio-button-response","trial_index":75,"time_elapsed":228802,"internal_node_id":"0.0-1.0-0.36"},{"rt":2920.1600000087637,"stimulus":"audio/actual/s5-blind-10_jean_saigne_beaucoup.mp3","button_pressed":"0","test_part":"test","phrase":"10","condition":"blind","subject":"s5","trial_type":"audio-button-response","trial_index":77,"time_elapsed":234139,"internal_node_id":"0.0-1.0-0.37"},{"rt":1621.9050000072457,"stimulus":"audio/actual/s3-imitation-10bis_jenseigne_beaucoup-3_cut1norm.mp3","button_pressed":"1","test_part":"test","phrase":"10bis","condition":"imitation","subject":"s3","trial_type":"audio-button-response","trial_index":79,"time_elapsed":236124,"internal_node_id":"0.0-1.0-0.38"},{"rt":2535.0049999833573,"stimulus":"audio/actual/s2-blind-10_jean_saigne_beaucoup.mp3","button_pressed":"0","test_part":"test","phrase":"10","condition":"blind","subject":"s2","trial_type":"audio-button-response","trial_index":81,"time_elapsed":239034,"internal_node_id":"0.0-1.0-0.39"},{"rt":1458.5199999855831,"stimulus":"audio/actual/s4-imitation-10bis_jenseigne_beaucoup-0_cut1norm.mp3","button_pressed":"1","test_part":"test","phrase":"10bis","condition":"imitation","subject":"s4","trial_type":"audio-button-response","trial_index":83,"time_elapsed":240846,"internal_node_id":"0.0-1.0-0.40"},{"rt":1517.4450000049546,"stimulus":"audio/actual/s7-lecture-10_jean_saigne_beaucoup-8_cut1norm.mp3","button_pressed":"1","test_part":"test","phrase":"10","condition":"lecture","subject":"s7","trial_type":"audio-button-response","trial_index":85,"time_elapsed":242472,"internal_node_id":"0.0-1.0-0.41"},{"rt":2659.2149999924004,"stimulus":"audio/actual/s4-blind-10_jean_saigne_beaucoup.mp3","button_pressed":"1","test_part":"test","phrase":"10","condition":"blind","subject":"s4","trial_type":"audio-button-response","trial_index":87,"time_elapsed":245806,"internal_node_id":"0.0-1.0-0.42"},{"rt":1422.694999986561,"stimulus":"audio/actual/s5-guide-10bis_jenseigne_beaucoup.mp3","button_pressed":"1","test_part":"test","phrase":"10bis","condition":"guide","subject":"s5","trial_type":"audio-button-response","trial_index":89,"time_elapsed":247686,"internal_node_id":"0.0-1.0-0.43"},{"rt":1418.310000008205,"stimulus":"audio/actual/s3-blind-10bis_jenseigne_beaucoup.mp3","button_pressed":"0","test_part":"test","phrase":"10bis","condition":"blind","subject":"s3","trial_type":"audio-button-response","trial_index":91,"time_elapsed":250226,"internal_node_id":"0.0-1.0-0.44"},{"rt":2372.0550000143703,"stimulus":"audio/actual/s6-imitation-10bis_jenseigne_beaucoup-4_cut1norm.mp3","button_pressed":"0","test_part":"test","phrase":"10bis","condition":"imitation","subject":"s6","trial_type":"audio-button-response","trial_index":93,"time_elapsed":252953,"internal_node_id":"0.0-1.0-0.45"},{"rt":1322.1400000038557,"stimulus":"audio/actual/s8-guide-10bis_jenseigne_beaucoup.mp3","button_pressed":"0","test_part":"test","phrase":"10bis","condition":"guide","subject":"s8","trial_type":"audio-button-response","trial_index":95,"time_elapsed":254592,"internal_node_id":"0.0-1.0-0.46"},{"rt":1824.0700000023935,"stimulus":"audio/actual/s6-imitation-10_jean_saigne_beaucoup-5_cut1norm.mp3","button_pressed":"0","test_part":"test","phrase":"10","condition":"imitation","subject":"s6","trial_type":"audio-button-response","trial_index":97,"time_elapsed":256604,"internal_node_id":"0.0-1.0-0.47"},{"rt":2367.064999998547,"stimulus":"audio/actual/s9-imitation-10_jean_saigne_beaucoup-4_cut1norm.mp3","button_pressed":"0","test_part":"test","phrase":"10","condition":"imitation","subject":"s9","trial_type":"audio-button-response","trial_index":99,"time_elapsed":259324,"internal_node_id":"0.0-1.0-0.48"},{"rt":1580.3200000082143,"stimulus":"audio/actual/s5-guide-10_jean_saigne_beaucoup.mp3","button_pressed":"0","test_part":"test","phrase":"10","condition":"guide","subject":"s5","trial_type":"audio-button-response","trial_index":101,"time_elapsed":261086,"internal_node_id":"0.0-1.0-0.49"},{"rt":1412.384999974165,"stimulus":"audio/actual/s1-imitation-10bis_jenseigne_beaucoup-10_cut1norm.mp3","button_pressed":"1","test_part":"test","phrase":"10bis","condition":"imitation","subject":"s1","trial_type":"audio-button-response","trial_index":103,"time_elapsed":262840,"internal_node_id":"0.0-1.0-0.50"},{"rt":2971.450000011828,"stimulus":"audio/actual/s8-imitation-10_jean_saigne_beaucoup-10_cut1norm.mp3","button_pressed":"1","test_part":"test","phrase":"10","condition":"imitation","subject":"s8","trial_type":"audio-button-response","trial_index":105,"time_elapsed":265972,"internal_node_id":"0.0-1.0-0.51"},{"rt":1647.240000020247,"stimulus":"audio/actual/s6-lecture-10bis_jenseigne_beaucoup-0_cut1norm.mp3","button_pressed":"0","test_part":"test","phrase":"10bis","condition":"lecture","subject":"s6","trial_type":"audio-button-response","trial_index":107,"time_elapsed":267748,"internal_node_id":"0.0-1.0-0.52"},{"rt":1681.5800000040326,"stimulus":"audio/actual/s2-blind-10bis_jenseigne_beaucoup.mp3","button_pressed":"1","test_part":"test","phrase":"10bis","condition":"blind","subject":"s2","trial_type":"audio-button-response","trial_index":109,"time_elapsed":269974,"internal_node_id":"0.0-1.0-0.53"},{"rt":2161.644999985583,"stimulus":"audio/actual/s4-guide-10bis_jenseigne_beaucoup.mp3","button_pressed":"1","test_part":"test","phrase":"10bis","condition":"guide","subject":"s4","trial_type":"audio-button-response","trial_index":111,"time_elapsed":272228,"internal_node_id":"0.0-1.0-0.54"},{"rt":2360.580000007758,"stimulus":"audio/actual/s9-lecture-10_jean_saigne_beaucoup-3_cut1norm.mp3","button_pressed":"0","test_part":"test","phrase":"10","condition":"lecture","subject":"s9","trial_type":"audio-button-response","trial_index":113,"time_elapsed":274705,"internal_node_id":"0.0-1.0-0.55"},{"rt":2579.5750000106636,"stimulus":"audio/actual/s8-imitation-10bis_jenseigne_beaucoup-11_cut1norm.mp3","button_pressed":"0","test_part":"test","phrase":"10bis","condition":"imitation","subject":"s8","trial_type":"audio-button-response","trial_index":115,"time_elapsed":277653,"internal_node_id":"0.0-1.0-0.56"},{"rt":1822.924999985844,"stimulus":"audio/actual/s9-guide-10_jean_saigne_beaucoup.mp3","button_pressed":"1","test_part":"test","phrase":"10","condition":"guide","subject":"s9","trial_type":"audio-button-response","trial_index":117,"time_elapsed":279879,"internal_node_id":"0.0-1.0-0.57"},{"rt":2057.990000001155,"stimulus":"audio/actual/s1-blind-10bis_jenseigne_beaucoup.mp3","button_pressed":"1","test_part":"test","phrase":"10bis","condition":"blind","subject":"s1","trial_type":"audio-button-response","trial_index":119,"time_elapsed":282087,"internal_node_id":"0.0-1.0-0.58"},{"rt":3411.599999992177,"stimulus":"audio/actual/s4-imitation-10_jean_saigne_beaucoup-1_cut1norm.mp3","button_pressed":"0","test_part":"test","phrase":"10","condition":"imitation","subject":"s4","trial_type":"audio-button-response","trial_index":121,"time_elapsed":285986,"internal_node_id":"0.0-1.0-0.59"},{"rt":1668.8350000185892,"stimulus":"audio/actual/s1-guide-10bis_jenseigne_beaucoup.mp3","button_pressed":"0","test_part":"test","phrase":"10bis","condition":"guide","subject":"s1","trial_type":"audio-button-response","trial_index":123,"time_elapsed":288009,"internal_node_id":"0.0-1.0-0.60"},{"rt":2932.0449999941047,"stimulus":"audio/actual/s10-lecture-10bis_jenseigne_beaucoup-11_cut1norm.mp3","button_pressed":"1","test_part":"test","phrase":"10bis","condition":"lecture","subject":"s10","trial_type":"audio-button-response","trial_index":125,"time_elapsed":291361,"internal_node_id":"0.0-1.0-0.61"},{"rt":1261.7599999939557,"stimulus":"audio/actual/s7-imitation-10_jean_saigne_beaucoup-3_cut1norm.mp3","button_pressed":"0","test_part":"test","phrase":"10","condition":"imitation","subject":"s7","trial_type":"audio-button-response","trial_index":127,"time_elapsed":292943,"internal_node_id":"0.0-1.0-0.62"},{"rt":1800.1899999799207,"stimulus":"audio/actual/s5-imitation-10bis_jenseigne_beaucoup-11_cut1norm.mp3","button_pressed":"1","test_part":"test","phrase":"10bis","condition":"imitation","subject":"s5","trial_type":"audio-button-response","trial_index":129,"time_elapsed":294957,"internal_node_id":"0.0-1.0-0.63"},{"rt":2467.179999977816,"stimulus":"audio/actual/s6-blind-10bis_jenseigne_beaucoup.mp3","button_pressed":"0","test_part":"test","phrase":"10bis","condition":"blind","subject":"s6","trial_type":"audio-button-response","trial_index":131,"time_elapsed":297601,"internal_node_id":"0.0-1.0-0.64"},{"rt":1117.469999997411,"stimulus":"audio/actual/s5-imitation-10_jean_saigne_beaucoup-10_cut1norm.mp3","button_pressed":"1","test_part":"test","phrase":"10","condition":"imitation","subject":"s5","trial_type":"audio-button-response","trial_index":133,"time_elapsed":299176,"internal_node_id":"0.0-1.0-0.65"},{"rt":770.699999993667,"stimulus":"audio/actual/s10-guide-10_jean_saigne_beaucoup.mp3","button_pressed":"0","test_part":"test","phrase":"10","condition":"guide","subject":"s10","trial_type":"audio-button-response","trial_index":135,"time_elapsed":300333,"internal_node_id":"0.0-1.0-0.66"},{"rt":916.6700000059791,"stimulus":"audio/actual/s7-lecture-10bis_jenseigne_beaucoup-9_cut1norm.mp3","button_pressed":"0","test_part":"test","phrase":"10bis","condition":"lecture","subject":"s7","trial_type":"audio-button-response","trial_index":137,"time_elapsed":301416,"internal_node_id":"0.0-1.0-0.67"},{"rt":555.7200000039302,"stimulus":"audio/actual/s10-imitation-10bis_jenseigne_beaucoup-10_cut1norm.mp3","button_pressed":"0","test_part":"test","phrase":"10bis","condition":"imitation","subject":"s10","trial_type":"audio-button-response","trial_index":139,"time_elapsed":302353,"internal_node_id":"0.0-1.0-0.68"},{"rt":514.484999992419,"stimulus":"audio/actual/s7-blind-10bis_jenseigne_beaucoup.mp3","button_pressed":"0","test_part":"test","phrase":"10bis","condition":"blind","subject":"s7","trial_type":"audio-button-response","trial_index":141,"time_elapsed":303166,"internal_node_id":"0.0-1.0-0.69"},{"rt":902.1249999932479,"stimulus":"audio/actual/s6-blind-10_jean_saigne_beaucoup.mp3","button_pressed":"0","test_part":"test","phrase":"10","condition":"blind","subject":"s6","trial_type":"audio-button-response","trial_index":143,"time_elapsed":304443,"internal_node_id":"0.0-1.0-0.70"},{"rt":1602.1949999849312,"stimulus":"audio/actual/s4-lecture-10_jean_saigne_beaucoup-1_cut1norm.mp3","button_pressed":"0","test_part":"test","phrase":"10","condition":"lecture","subject":"s4","trial_type":"audio-button-response","trial_index":145,"time_elapsed":307000,"internal_node_id":"0.0-1.0-0.71"},{"rt":1331.399999995483,"stimulus":"audio/actual/s7-blind-10_jean_saigne_beaucoup.mp3","button_pressed":"1","test_part":"test","phrase":"10","condition":"blind","subject":"s7","trial_type":"audio-button-response","trial_index":147,"time_elapsed":309151,"internal_node_id":"0.0-1.0-0.72"},{"rt":2185.0200000044424,"stimulus":"audio/actual/s5-lecture-10_jean_saigne_beaucoup-5_cut1norm.mp3","button_pressed":"0","test_part":"test","phrase":"10","condition":"lecture","subject":"s5","trial_type":"audio-button-response","trial_index":149,"time_elapsed":311800,"internal_node_id":"0.0-1.0-0.73"},{"rt":1584.5100000151433,"stimulus":"audio/actual/s2-imitation-10_jean_saigne_beaucoup-4_cut1norm.mp3","button_pressed":"0","test_part":"test","phrase":"10","condition":"imitation","subject":"s2","trial_type":"audio-button-response","trial_index":151,"time_elapsed":313539,"internal_node_id":"0.0-1.0-0.74"},{"rt":1733.9750000101048,"stimulus":"audio/actual/s8-lecture-10_jean_saigne_beaucoup-10_cut1norm.mp3","button_pressed":"1","test_part":"test","phrase":"10","condition":"lecture","subject":"s8","trial_type":"audio-button-response","trial_index":153,"time_elapsed":315898,"internal_node_id":"0.0-1.0-0.75"},{"rt":3148.2600000163075,"stimulus":"audio/actual/s4-guide-10_jean_saigne_beaucoup.mp3","button_pressed":"1","test_part":"test","phrase":"10","condition":"guide","subject":"s4","trial_type":"audio-button-response","trial_index":155,"time_elapsed":319369,"internal_node_id":"0.0-1.0-0.76"},{"rt":3074.6349999972153,"stimulus":"audio/actual/s2-lecture-10bis_jenseigne_beaucoup-6_cut1norm.mp3","button_pressed":"0","test_part":"test","phrase":"10bis","condition":"lecture","subject":"s2","trial_type":"audio-button-response","trial_index":157,"time_elapsed":322772,"internal_node_id":"0.0-1.0-0.77"},{"rt":2936.2700000056066,"stimulus":"audio/actual/s7-guide-10bis_jenseigne_beaucoup.mp3","button_pressed":"1","test_part":"test","phrase":"10bis","condition":"guide","subject":"s7","trial_type":"audio-button-response","trial_index":159,"time_elapsed":326116,"internal_node_id":"0.0-1.0-0.78"},{"rt":2759.325000020908,"stimulus":"audio/actual/s10-blind-10bis_jenseigne_beaucoup.mp3","button_pressed":"0","test_part":"test","phrase":"10bis","condition":"blind","subject":"s10","trial_type":"audio-button-response","trial_index":161,"time_elapsed":329212,"internal_node_id":"0.0-1.0-0.79"}]