[{"rt":2735.0700000006327,"stimulus":"audio/actual/s7-lecture-10_jean_saigne_beaucoup-8_cut1norm.mp3","button_pressed":"0","test_part":"test","phrase":"10","condition":"lecture","subject":"s7","trial_type":"audio-button-response","trial_index":1,"time_elapsed":5390,"internal_node_id":"0.0-1.0-0.0"},{"rt":2902.729999999792,"stimulus":"audio/actual/s8-guide-10_jean_saigne_beaucoup.mp3","button_pressed":"0","test_part":"test","phrase":"10","condition":"guide","subject":"s8","trial_type":"audio-button-response","trial_index":3,"time_elapsed":8830,"internal_node_id":"0.0-1.0-0.1"},{"rt":1848.3300000007148,"stimulus":"audio/actual/s7-blind-10bis_jenseigne_beaucoup.mp3","button_pressed":"1","test_part":"test","phrase":"10bis","condition":"blind","subject":"s7","trial_type":"audio-button-response","trial_index":5,"time_elapsed":11326,"internal_node_id":"0.0-1.0-0.2"},{"rt":2792.284999999538,"stimulus":"audio/actual/s1-blind-10_jean_saigne_beaucoup.mp3","button_pressed":"0","test_part":"test","phrase":"10","condition":"blind","subject":"s1","trial_type":"audio-button-response","trial_index":7,"time_elapsed":14693,"internal_node_id":"0.0-1.0-0.3"},{"rt":1712.375000000975,"stimulus":"audio/actual/s7-blind-10_jean_saigne_beaucoup.mp3","button_pressed":"0","test_part":"test","phrase":"10","condition":"blind","subject":"s7","trial_type":"audio-button-response","trial_index":9,"time_elapsed":17078,"internal_node_id":"0.0-1.0-0.4"},{"rt":2256.5450000001874,"stimulus":"audio/actual/s1-imitation-10bis_jenseigne_beaucoup-10_cut1norm.mp3","button_pressed":"1","test_part":"test","phrase":"10bis","condition":"imitation","subject":"s1","trial_type":"audio-button-response","trial_index":11,"time_elapsed":19765,"internal_node_id":"0.0-1.0-0.5"},{"rt":2568.680000000313,"stimulus":"audio/actual/s4-blind-10_jean_saigne_beaucoup.mp3","button_pressed":"1","test_part":"test","phrase":"10","condition":"blind","subject":"s4","trial_type":"audio-button-response","trial_index":13,"time_elapsed":22845,"internal_node_id":"0.0-1.0-0.6"},{"rt":3800.230000000738,"stimulus":"audio/actual/s1-lecture-10_jean_saigne_beaucoup-2_cut1norm.mp3","button_pressed":"1","test_part":"test","phrase":"10","condition":"lecture","subject":"s1","trial_type":"audio-button-response","trial_index":15,"time_elapsed":27093,"internal_node_id":"0.0-1.0-0.7"},{"rt":1831.8949999993492,"stimulus":"audio/actual/s7-guide-10_jean_saigne_beaucoup.mp3","button_pressed":"0","test_part":"test","phrase":"10","condition":"guide","subject":"s7","trial_type":"audio-button-response","trial_index":17,"time_elapsed":29341,"internal_node_id":"0.0-1.0-0.8"},{"rt":1680.225000000064,"stimulus":"audio/actual/s2-guide-10bis_jenseigne_beaucoup.mp3","button_pressed":"1","test_part":"test","phrase":"10bis","condition":"guide","subject":"s2","trial_type":"audio-button-response","trial_index":19,"time_elapsed":31541,"internal_node_id":"0.0-1.0-0.9"},{"rt":5856.450000001132,"stimulus":"audio/actual/s7-lecture-10bis_jenseigne_beaucoup-9_cut1norm.mp3","button_pressed":"1","test_part":"test","phrase":"10bis","condition":"lecture","subject":"s7","trial_type":"audio-button-response","trial_index":21,"time_elapsed":38110,"internal_node_id":"0.0-1.0-0.10"},{"rt":3824.305000000095,"stimulus":"audio/actual/s4-imitation-10bis_jenseigne_beaucoup-0_cut1norm.mp3","button_pressed":"1","test_part":"test","phrase":"10bis","condition":"imitation","subject":"s4","trial_type":"audio-button-response","trial_index":23,"time_elapsed":44653,"internal_node_id":"0.0-1.0-0.11"},{"rt":2328.4999999996217,"stimulus":"audio/actual/s5-imitation-10bis_jenseigne_beaucoup-11_cut1norm.mp3","button_pressed":"1","test_part":"test","phrase":"10bis","condition":"imitation","subject":"s5","trial_type":"audio-button-response","trial_index":25,"time_elapsed":47502,"internal_node_id":"0.0-1.0-0.12"},{"rt":2256.149999999252,"stimulus":"audio/actual/s8-imitation-10bis_jenseigne_beaucoup-11_cut1norm.mp3","button_pressed":"1","test_part":"test","phrase":"10bis","condition":"imitation","subject":"s8","trial_type":"audio-button-response","trial_index":27,"time_elapsed":50197,"internal_node_id":"0.0-1.0-0.13"},{"rt":1648.6450000011246,"stimulus":"audio/actual/s5-guide-10bis_jenseigne_beaucoup.mp3","button_pressed":"1","test_part":"test","phrase":"10bis","condition":"guide","subject":"s5","trial_type":"audio-button-response","trial_index":29,"time_elapsed":52365,"internal_node_id":"0.0-1.0-0.14"},{"rt":3032.6199999999517,"stimulus":"audio/actual/s6-guide-10_jean_saigne_beaucoup.mp3","button_pressed":"1","test_part":"test","phrase":"10","condition":"guide","subject":"s6","trial_type":"audio-button-response","trial_index":31,"time_elapsed":56070,"internal_node_id":"0.0-1.0-0.15"},{"rt":1896.084999998493,"stimulus":"audio/actual/s4-lecture-10_jean_saigne_beaucoup-1_cut1norm.mp3","button_pressed":"0","test_part":"test","phrase":"10","condition":"lecture","subject":"s4","trial_type":"audio-button-response","trial_index":33,"time_elapsed":58317,"internal_node_id":"0.0-1.0-0.16"},{"rt":2496.675000000323,"stimulus":"audio/actual/s3-blind-10bis_jenseigne_beaucoup.mp3","button_pressed":"1","test_part":"test","phrase":"10bis","condition":"blind","subject":"s3","trial_type":"audio-button-response","trial_index":35,"time_elapsed":61221,"internal_node_id":"0.0-1.0-0.17"},{"rt":3504.6949999996286,"stimulus":"audio/actual/s6-blind-10bis_jenseigne_beaucoup.mp3","button_pressed":"1","test_part":"test","phrase":"10bis","condition":"blind","subject":"s6","trial_type":"audio-button-response","trial_index":37,"time_elapsed":65109,"internal_node_id":"0.0-1.0-0.18"},{"rt":3048.2300000003306,"stimulus":"audio/actual/s3-imitation-10bis_jenseigne_beaucoup-3_cut1norm.mp3","button_pressed":"1","test_part":"test","phrase":"10bis","condition":"imitation","subject":"s3","trial_type":"audio-button-response","trial_index":39,"time_elapsed":68693,"internal_node_id":"0.0-1.0-0.19"},{"rt":2032.1400000011636,"stimulus":"audio/actual/s2-lecture-10_jean_saigne_beaucoup-7_cut1norm.mp3","button_pressed":"0","test_part":"test","phrase":"10","condition":"lecture","subject":"s2","trial_type":"audio-button-response","trial_index":41,"time_elapsed":71301,"internal_node_id":"0.0-1.0-0.20"},{"rt":3864.400000000387,"stimulus":"audio/actual/s6-imitation-10bis_jenseigne_beaucoup-4_cut1norm.mp3","button_pressed":"1","test_part":"test","phrase":"10bis","condition":"imitation","subject":"s6","trial_type":"audio-button-response","trial_index":43,"time_elapsed":77437,"internal_node_id":"0.0-1.0-0.21"},{"rt":3495.934999999008,"stimulus":"audio/actual/s10-imitation-10bis_jenseigne_beaucoup-10_cut1norm.mp3","button_pressed":"0","test_part":"test","phrase":"10bis","condition":"imitation","subject":"s10","trial_type":"audio-button-response","trial_index":45,"time_elapsed":81757,"internal_node_id":"0.0-1.0-0.22"},{"rt":2094.359999999142,"stimulus":"audio/actual/s3-imitation-10_jean_saigne_beaucoup-2_cut1norm.mp3","button_pressed":"0","test_part":"test","phrase":"10","condition":"imitation","subject":"s3","trial_type":"audio-button-response","trial_index":47,"time_elapsed":90925,"internal_node_id":"0.0-1.0-0.23"},{"rt":3328.6349999998492,"stimulus":"audio/actual/s5-guide-10_jean_saigne_beaucoup.mp3","button_pressed":"1","test_part":"test","phrase":"10","condition":"guide","subject":"s5","trial_type":"audio-button-response","trial_index":49,"time_elapsed":94909,"internal_node_id":"0.0-1.0-0.24"},{"rt":2144.225000000006,"stimulus":"audio/actual/s4-blind-10bis_jenseigne_beaucoup.mp3","button_pressed":"0","test_part":"test","phrase":"10bis","condition":"blind","subject":"s4","trial_type":"audio-button-response","trial_index":51,"time_elapsed":97501,"internal_node_id":"0.0-1.0-0.25"},{"rt":3185.090000000855,"stimulus":"audio/actual/s9-imitation-10_jean_saigne_beaucoup-4_cut1norm.mp3","button_pressed":"0","test_part":"test","phrase":"10","condition":"imitation","subject":"s9","trial_type":"audio-button-response","trial_index":53,"time_elapsed":101069,"internal_node_id":"0.0-1.0-0.26"},{"rt":3560.475000000224,"stimulus":"audio/actual/s7-imitation-10bis_jenseigne_beaucoup-2_cut1norm.mp3","button_pressed":"1","test_part":"test","phrase":"10bis","condition":"imitation","subject":"s7","trial_type":"audio-button-response","trial_index":55,"time_elapsed":104885,"internal_node_id":"0.0-1.0-0.27"},{"rt":2079.4499999992695,"stimulus":"audio/actual/s9-lecture-10_jean_saigne_beaucoup-3_cut1norm.mp3","button_pressed":"0","test_part":"test","phrase":"10","condition":"lecture","subject":"s9","trial_type":"audio-button-response","trial_index":57,"time_elapsed":107556,"internal_node_id":"0.0-1.0-0.28"},{"rt":2744.3399999992835,"stimulus":"audio/actual/s6-lecture-10_jean_saigne_beaucoup-1_cut1norm.mp3","button_pressed":"0","test_part":"test","phrase":"10","condition":"lecture","subject":"s6","trial_type":"audio-button-response","trial_index":59,"time_elapsed":110805,"internal_node_id":"0.0-1.0-0.29"},{"rt":2175.874999998996,"stimulus":"audio/actual/s9-imitation-10bis_jenseigne_beaucoup-5_cut1norm.mp3","button_pressed":"1","test_part":"test","phrase":"10bis","condition":"imitation","subject":"s9","trial_type":"audio-button-response","trial_index":61,"time_elapsed":113413,"internal_node_id":"0.0-1.0-0.30"},{"rt":2248.1950000001234,"stimulus":"audio/actual/s6-lecture-10bis_jenseigne_beaucoup-0_cut1norm.mp3","button_pressed":"0","test_part":"test","phrase":"10bis","condition":"lecture","subject":"s6","trial_type":"audio-button-response","trial_index":63,"time_elapsed":116084,"internal_node_id":"0.0-1.0-0.31"},{"rt":2384.554999998727,"stimulus":"audio/actual/s10-blind-10_jean_saigne_beaucoup.mp3","button_pressed":"1","test_part":"test","phrase":"10","condition":"blind","subject":"s10","trial_type":"audio-button-response","trial_index":65,"time_elapsed":118813,"internal_node_id":"0.0-1.0-0.32"},{"rt":1919.0949999992881,"stimulus":"audio/actual/s5-imitation-10_jean_saigne_beaucoup-10_cut1norm.mp3","button_pressed":"0","test_part":"test","phrase":"10","condition":"imitation","subject":"s5","trial_type":"audio-button-response","trial_index":67,"time_elapsed":121101,"internal_node_id":"0.0-1.0-0.33"},{"rt":3184.8300000001473,"stimulus":"audio/actual/s3-lecture-10bis_jenseigne_beaucoup-3_cut1norm.mp3","button_pressed":"1","test_part":"test","phrase":"10bis","condition":"lecture","subject":"s3","trial_type":"audio-button-response","trial_index":69,"time_elapsed":124564,"internal_node_id":"0.0-1.0-0.34"},{"rt":3864.9649999988324,"stimulus":"audio/actual/s8-lecture-10bis_jenseigne_beaucoup-11_cut1norm.mp3","button_pressed":"2","test_part":"test","phrase":"10bis","condition":"lecture","subject":"s8","trial_type":"audio-button-response","trial_index":71,"time_elapsed":128773,"internal_node_id":"0.0-1.0-0.35"},{"rt":2166.1800000001676,"stimulus":"audio/actual/s8-lecture-10bis_jenseigne_beaucoup-11_cut1norm.mp3","button_pressed":"1","test_part":"test","phrase":"10bis","condition":"lecture","subject":"s8","trial_type":"audio-button-response","trial_index":72,"time_elapsed":130941,"internal_node_id":"0.0-1.0-1.35-0.35"},{"rt":1792.325000000361,"stimulus":"audio/actual/s3-guide-10_jean_saigne_beaucoup.mp3","button_pressed":"0","test_part":"test","phrase":"10","condition":"guide","subject":"s3","trial_type":"audio-button-response","trial_index":74,"time_elapsed":133196,"internal_node_id":"0.0-1.0-0.36"},{"rt":1751.4150000006193,"stimulus":"audio/actual/s4-guide-10bis_jenseigne_beaucoup.mp3","button_pressed":"1","test_part":"test","phrase":"10bis","condition":"guide","subject":"s4","trial_type":"audio-button-response","trial_index":76,"time_elapsed":135404,"internal_node_id":"0.0-1.0-0.37"},{"rt":1536.5700000002107,"stimulus":"audio/actual/s1-imitation-10_jean_saigne_beaucoup-11_cut1norm.mp3","button_pressed":"0","test_part":"test","phrase":"10","condition":"imitation","subject":"s1","trial_type":"audio-button-response","trial_index":78,"time_elapsed":137124,"internal_node_id":"0.0-1.0-0.38"},{"rt":2139.9650000003166,"stimulus":"audio/actual/s6-blind-10_jean_saigne_beaucoup.mp3","button_pressed":"0","test_part":"test","phrase":"10","condition":"blind","subject":"s6","trial_type":"audio-button-response","trial_index":80,"time_elapsed":139573,"internal_node_id":"0.0-1.0-0.39"},{"rt":2648.6650000006193,"stimulus":"audio/actual/s3-lecture-10_jean_saigne_beaucoup-2_cut1norm.mp3","button_pressed":"0","test_part":"test","phrase":"10","condition":"lecture","subject":"s3","trial_type":"audio-button-response","trial_index":82,"time_elapsed":142516,"internal_node_id":"0.0-1.0-0.40"},{"rt":1936.6300000001502,"stimulus":"audio/actual/s1-guide-10_jean_saigne_beaucoup.mp3","button_pressed":"1","test_part":"test","phrase":"10","condition":"guide","subject":"s1","trial_type":"audio-button-response","trial_index":84,"time_elapsed":144852,"internal_node_id":"0.0-1.0-0.41"},{"rt":1744.114999999525,"stimulus":"audio/actual/s8-guide-10bis_jenseigne_beaucoup.mp3","button_pressed":"1","test_part":"test","phrase":"10bis","condition":"guide","subject":"s8","trial_type":"audio-button-response","trial_index":86,"time_elapsed":147460,"internal_node_id":"0.0-1.0-0.42"},{"rt":1976.674999999872,"stimulus":"audio/actual/s10-blind-10bis_jenseigne_beaucoup.mp3","button_pressed":"0","test_part":"test","phrase":"10bis","condition":"blind","subject":"s10","trial_type":"audio-button-response","trial_index":88,"time_elapsed":149821,"internal_node_id":"0.0-1.0-0.43"},{"rt":1911.6749999993772,"stimulus":"audio/actual/s8-blind-10_jean_saigne_beaucoup.mp3","button_pressed":"1","test_part":"test","phrase":"10","condition":"blind","subject":"s8","trial_type":"audio-button-response","trial_index":90,"time_elapsed":152317,"internal_node_id":"0.0-1.0-0.44"},{"rt":1944.6000000007043,"stimulus":"audio/actual/s2-blind-10bis_jenseigne_beaucoup.mp3","button_pressed":"1","test_part":"test","phrase":"10bis","condition":"blind","subject":"s2","trial_type":"audio-button-response","trial_index":92,"time_elapsed":154677,"internal_node_id":"0.0-1.0-0.45"},{"rt":1352.6450000008335,"stimulus":"audio/actual/s6-imitation-10_jean_saigne_beaucoup-5_cut1norm.mp3","button_pressed":"0","test_part":"test","phrase":"10","condition":"imitation","subject":"s6","trial_type":"audio-button-response","trial_index":94,"time_elapsed":156244,"internal_node_id":"0.0-1.0-0.46"},{"rt":1607.3049999995565,"stimulus":"audio/actual/s2-imitation-10_jean_saigne_beaucoup-4_cut1norm.mp3","button_pressed":"0","test_part":"test","phrase":"10","condition":"imitation","subject":"s2","trial_type":"audio-button-response","trial_index":96,"time_elapsed":158196,"internal_node_id":"0.0-1.0-0.47"},{"rt":1936.6699999991106,"stimulus":"audio/actual/s9-blind-10bis_jenseigne_beaucoup.mp3","button_pressed":"1","test_part":"test","phrase":"10bis","condition":"blind","subject":"s9","trial_type":"audio-button-response","trial_index":98,"time_elapsed":160509,"internal_node_id":"0.0-1.0-0.48"},{"rt":2406.3949999999895,"stimulus":"audio/actual/s3-blind-10_jean_saigne_beaucoup.mp3","button_pressed":"0","test_part":"test","phrase":"10","condition":"blind","subject":"s3","trial_type":"audio-button-response","trial_index":100,"time_elapsed":163716,"internal_node_id":"0.0-1.0-0.49"},{"rt":2911.77000000063,"stimulus":"audio/actual/s10-guide-10_jean_saigne_beaucoup.mp3","button_pressed":"0","test_part":"test","phrase":"10","condition":"guide","subject":"s10","trial_type":"audio-button-response","trial_index":102,"time_elapsed":167188,"internal_node_id":"0.0-1.0-0.50"},{"rt":2294.5500000005413,"stimulus":"audio/actual/s4-lecture-10bis_jenseigne_beaucoup-0_cut1norm.mp3","button_pressed":"1","test_part":"test","phrase":"10bis","condition":"lecture","subject":"s4","trial_type":"audio-button-response","trial_index":104,"time_elapsed":169948,"internal_node_id":"0.0-1.0-0.51"},{"rt":1384.539999999106,"stimulus":"audio/actual/s8-blind-10bis_jenseigne_beaucoup.mp3","button_pressed":"1","test_part":"test","phrase":"10bis","condition":"blind","subject":"s8","trial_type":"audio-button-response","trial_index":106,"time_elapsed":171668,"internal_node_id":"0.0-1.0-0.52"},{"rt":1880.82999999827,"stimulus":"audio/actual/s2-lecture-10bis_jenseigne_beaucoup-6_cut1norm.mp3","button_pressed":"1","test_part":"test","phrase":"10bis","condition":"lecture","subject":"s2","trial_type":"audio-button-response","trial_index":108,"time_elapsed":173916,"internal_node_id":"0.0-1.0-0.53"},{"rt":2056.3550000006217,"stimulus":"audio/actual/s3-guide-10bis_jenseigne_beaucoup.mp3","button_pressed":"1","test_part":"test","phrase":"10bis","condition":"guide","subject":"s3","trial_type":"audio-button-response","trial_index":110,"time_elapsed":176356,"internal_node_id":"0.0-1.0-0.54"},{"rt":1184.8499999996275,"stimulus":"audio/actual/s7-guide-10bis_jenseigne_beaucoup.mp3","button_pressed":"1","test_part":"test","phrase":"10bis","condition":"guide","subject":"s7","trial_type":"audio-button-response","trial_index":112,"time_elapsed":177804,"internal_node_id":"0.0-1.0-0.55"},{"rt":1696.2650000004796,"stimulus":"audio/actual/s1-blind-10bis_jenseigne_beaucoup.mp3","button_pressed":"0","test_part":"test","phrase":"10bis","condition":"blind","subject":"s1","trial_type":"audio-button-response","trial_index":114,"time_elapsed":179732,"internal_node_id":"0.0-1.0-0.56"},{"rt":1551.0300000005518,"stimulus":"audio/actual/s5-lecture-10_jean_saigne_beaucoup-5_cut1norm.mp3","button_pressed":"0","test_part":"test","phrase":"10","condition":"lecture","subject":"s5","trial_type":"audio-button-response","trial_index":116,"time_elapsed":181508,"internal_node_id":"0.0-1.0-0.57"},{"rt":2616.519999999611,"stimulus":"audio/actual/s9-blind-10_jean_saigne_beaucoup.mp3","button_pressed":"0","test_part":"test","phrase":"10","condition":"blind","subject":"s9","trial_type":"audio-button-response","trial_index":118,"time_elapsed":184348,"internal_node_id":"0.0-1.0-0.58"},{"rt":1590.8300000010058,"stimulus":"audio/actual/s8-imitation-10_jean_saigne_beaucoup-10_cut1norm.mp3","button_pressed":"0","test_part":"test","phrase":"10","condition":"imitation","subject":"s8","trial_type":"audio-button-response","trial_index":120,"time_elapsed":186644,"internal_node_id":"0.0-1.0-0.59"},{"rt":3240.1800000006915,"stimulus":"audio/actual/s10-guide-10bis_jenseigne_beaucoup.mp3","button_pressed":"1","test_part":"test","phrase":"10bis","condition":"guide","subject":"s10","trial_type":"audio-button-response","trial_index":122,"time_elapsed":190212,"internal_node_id":"0.0-1.0-0.60"},{"rt":3040.3349999996717,"stimulus":"audio/actual/s4-guide-10_jean_saigne_beaucoup.mp3","button_pressed":"0","test_part":"test","phrase":"10","condition":"guide","subject":"s4","trial_type":"audio-button-response","trial_index":124,"time_elapsed":193708,"internal_node_id":"0.0-1.0-0.61"},{"rt":2637.805000000284,"stimulus":"audio/actual/s8-lecture-10_jean_saigne_beaucoup-10_cut1norm.mp3","button_pressed":"0","test_part":"test","phrase":"10","condition":"lecture","subject":"s8","trial_type":"audio-button-response","trial_index":126,"time_elapsed":196868,"internal_node_id":"0.0-1.0-0.62"},{"rt":2576.3200000001234,"stimulus":"audio/actual/s6-guide-10bis_jenseigne_beaucoup.mp3","button_pressed":"1","test_part":"test","phrase":"10bis","condition":"guide","subject":"s6","trial_type":"audio-button-response","trial_index":128,"time_elapsed":200228,"internal_node_id":"0.0-1.0-0.63"},{"rt":2167.1699999988195,"stimulus":"audio/actual/s2-guide-10_jean_saigne_beaucoup.mp3","button_pressed":"0","test_part":"test","phrase":"10","condition":"guide","subject":"s2","trial_type":"audio-button-response","trial_index":130,"time_elapsed":203020,"internal_node_id":"0.0-1.0-0.64"},{"rt":1816.3750000003492,"stimulus":"audio/actual/s5-lecture-10bis_jenseigne_beaucoup-4_cut1norm.mp3","button_pressed":"1","test_part":"test","phrase":"10bis","condition":"lecture","subject":"s5","trial_type":"audio-button-response","trial_index":132,"time_elapsed":205188,"internal_node_id":"0.0-1.0-0.65"},{"rt":2231.474999998667,"stimulus":"audio/actual/s1-guide-10bis_jenseigne_beaucoup.mp3","button_pressed":"0","test_part":"test","phrase":"10bis","condition":"guide","subject":"s1","trial_type":"audio-button-response","trial_index":134,"time_elapsed":207716,"internal_node_id":"0.0-1.0-0.66"},{"rt":1119.7250000004715,"stimulus":"audio/actual/s9-guide-10bis_jenseigne_beaucoup.mp3","button_pressed":"1","test_part":"test","phrase":"10bis","condition":"guide","subject":"s9","trial_type":"audio-button-response","trial_index":136,"time_elapsed":209044,"internal_node_id":"0.0-1.0-0.67"},{"rt":2167.5450000002456,"stimulus":"audio/actual/s2-blind-10_jean_saigne_beaucoup.mp3","button_pressed":"1","test_part":"test","phrase":"10","condition":"blind","subject":"s2","trial_type":"audio-button-response","trial_index":138,"time_elapsed":211508,"internal_node_id":"0.0-1.0-0.68"},{"rt":1888.4600000001083,"stimulus":"audio/actual/s10-lecture-10_jean_saigne_beaucoup-10_cut1norm.mp3","button_pressed":"1","test_part":"test","phrase":"10","condition":"lecture","subject":"s10","trial_type":"audio-button-response","trial_index":140,"time_elapsed":213548,"internal_node_id":"0.0-1.0-0.69"},{"rt":2072.949999999779,"stimulus":"audio/actual/s9-lecture-10bis_jenseigne_beaucoup-2_cut1norm.mp3","button_pressed":"1","test_part":"test","phrase":"10bis","condition":"lecture","subject":"s9","trial_type":"audio-button-response","trial_index":142,"time_elapsed":215980,"internal_node_id":"0.0-1.0-0.70"},{"rt":1784.8500000000058,"stimulus":"audio/actual/s10-lecture-10bis_jenseigne_beaucoup-11_cut1norm.mp3","button_pressed":"1","test_part":"test","phrase":"10bis","condition":"lecture","subject":"s10","trial_type":"audio-button-response","trial_index":144,"time_elapsed":218020,"internal_node_id":"0.0-1.0-0.71"},{"rt":1440.9449999984936,"stimulus":"audio/actual/s9-guide-10_jean_saigne_beaucoup.mp3","button_pressed":"0","test_part":"test","phrase":"10","condition":"guide","subject":"s9","trial_type":"audio-button-response","trial_index":146,"time_elapsed":219588,"internal_node_id":"0.0-1.0-0.72"},{"rt":3695.669999999169,"stimulus":"audio/actual/s2-imitation-10bis_jenseigne_beaucoup-5_cut1norm.mp3","button_pressed":"0","test_part":"test","phrase":"10bis","condition":"imitation","subject":"s2","trial_type":"audio-button-response","trial_index":148,"time_elapsed":223460,"internal_node_id":"0.0-1.0-0.73"},{"rt":1320.1250000001746,"stimulus":"audio/actual/s4-imitation-10_jean_saigne_beaucoup-1_cut1norm.mp3","button_pressed":"0","test_part":"test","phrase":"10","condition":"imitation","subject":"s4","trial_type":"audio-button-response","trial_index":150,"time_elapsed":225076,"internal_node_id":"0.0-1.0-0.74"},{"rt":1600.759999999369,"stimulus":"audio/actual/s1-lecture-10bis_jenseigne_beaucoup-3_cut1norm.mp3","button_pressed":"1","test_part":"test","phrase":"10bis","condition":"lecture","subject":"s1","trial_type":"audio-button-response","trial_index":152,"time_elapsed":227220,"internal_node_id":"0.0-1.0-0.75"},{"rt":2632.8299999986484,"stimulus":"audio/actual/s5-blind-10bis_jenseigne_beaucoup.mp3","button_pressed":"1","test_part":"test","phrase":"10bis","condition":"blind","subject":"s5","trial_type":"audio-button-response","trial_index":154,"time_elapsed":230060,"internal_node_id":"0.0-1.0-0.76"},{"rt":5752.449999999953,"stimulus":"audio/actual/s7-imitation-10_jean_saigne_beaucoup-3_cut1norm.mp3","button_pressed":"0","test_part":"test","phrase":"10","condition":"imitation","subject":"s7","trial_type":"audio-button-response","trial_index":156,"time_elapsed":241252,"internal_node_id":"0.0-1.0-0.77"},{"rt":2208.3450000009325,"stimulus":"audio/actual/s5-blind-10_jean_saigne_beaucoup.mp3","button_pressed":"1","test_part":"test","phrase":"10","condition":"blind","subject":"s5","trial_type":"audio-button-response","trial_index":158,"time_elapsed":244396,"internal_node_id":"0.0-1.0-0.78"},{"rt":1968.4450000004144,"stimulus":"audio/actual/s10-imitation-10_jean_saigne_beaucoup-11_cut1norm.mp3","button_pressed":"0","test_part":"test","phrase":"10","condition":"imitation","subject":"s10","trial_type":"audio-button-response","trial_index":160,"time_elapsed":246908,"internal_node_id":"0.0-1.0-0.79"}]