[{"rt":9827.714999999444,"stimulus":"audio/actual/s2-lecture-10bis_jenseigne_beaucoup-6_cut1norm.mp3","button_pressed":"1","test_part":"test","phrase":"10bis","condition":"lecture","subject":"s2","trial_type":"audio-button-response","trial_index":1,"time_elapsed":13877,"internal_node_id":"0.0-1.0-0.0"},{"rt":2946.490000002086,"stimulus":"audio/actual/s3-imitation-10_jean_saigne_beaucoup-2_cut1norm.mp3","button_pressed":"0","test_part":"test","phrase":"10","condition":"imitation","subject":"s3","trial_type":"audio-button-response","trial_index":3,"time_elapsed":17743,"internal_node_id":"0.0-1.0-0.1"},{"rt":2242.005000000063,"stimulus":"audio/actual/s2-guide-10_jean_saigne_beaucoup.mp3","button_pressed":"0","test_part":"test","phrase":"10","condition":"guide","subject":"s2","trial_type":"audio-button-response","trial_index":5,"time_elapsed":20904,"internal_node_id":"0.0-1.0-0.2"},{"rt":3713.9600000009523,"stimulus":"audio/actual/s7-lecture-10_jean_saigne_beaucoup-8_cut1norm.mp3","button_pressed":"2","test_part":"test","phrase":"10","condition":"lecture","subject":"s7","trial_type":"audio-button-response","trial_index":7,"time_elapsed":25291,"internal_node_id":"0.0-1.0-0.3"},{"rt":2549.875000004249,"stimulus":"audio/actual/s7-lecture-10_jean_saigne_beaucoup-8_cut1norm.mp3","button_pressed":"1","test_part":"test","phrase":"10","condition":"lecture","subject":"s7","trial_type":"audio-button-response","trial_index":8,"time_elapsed":27844,"internal_node_id":"0.0-1.0-1.3-0.3"},{"rt":1997.0899999971152,"stimulus":"audio/actual/s2-lecture-10_jean_saigne_beaucoup-7_cut1norm.mp3","button_pressed":"0","test_part":"test","phrase":"10","condition":"lecture","subject":"s2","trial_type":"audio-button-response","trial_index":10,"time_elapsed":30502,"internal_node_id":"0.0-1.0-0.4"},{"rt":1607.0249999975204,"stimulus":"audio/actual/s9-guide-10bis_jenseigne_beaucoup.mp3","button_pressed":"1","test_part":"test","phrase":"10bis","condition":"guide","subject":"s9","trial_type":"audio-button-response","trial_index":12,"time_elapsed":32780,"internal_node_id":"0.0-1.0-0.5"},{"rt":5235.15999999654,"stimulus":"audio/actual/s4-blind-10_jean_saigne_beaucoup.mp3","button_pressed":"0","test_part":"test","phrase":"10","condition":"blind","subject":"s4","trial_type":"audio-button-response","trial_index":14,"time_elapsed":38567,"internal_node_id":"0.0-1.0-0.6"},{"rt":2579.250000002503,"stimulus":"audio/actual/s3-imitation-10bis_jenseigne_beaucoup-3_cut1norm.mp3","button_pressed":"1","test_part":"test","phrase":"10bis","condition":"imitation","subject":"s3","trial_type":"audio-button-response","trial_index":16,"time_elapsed":41784,"internal_node_id":"0.0-1.0-0.7"},{"rt":3456.480000000738,"stimulus":"audio/actual/s4-guide-10_jean_saigne_beaucoup.mp3","button_pressed":"0","test_part":"test","phrase":"10","condition":"guide","subject":"s4","trial_type":"audio-button-response","trial_index":18,"time_elapsed":45722,"internal_node_id":"0.0-1.0-0.8"},{"rt":5132.339999996475,"stimulus":"audio/actual/s1-lecture-10_jean_saigne_beaucoup-2_cut1norm.mp3","button_pressed":"0","test_part":"test","phrase":"10","condition":"lecture","subject":"s1","trial_type":"audio-button-response","trial_index":20,"time_elapsed":51329,"internal_node_id":"0.0-1.0-0.9"},{"rt":2225.6450000058976,"stimulus":"audio/actual/s6-guide-10_jean_saigne_beaucoup.mp3","button_pressed":"0","test_part":"test","phrase":"10","condition":"guide","subject":"s6","trial_type":"audio-button-response","trial_index":22,"time_elapsed":54081,"internal_node_id":"0.0-1.0-0.10"},{"rt":1530.6500000006054,"stimulus":"audio/actual/s7-lecture-10bis_jenseigne_beaucoup-9_cut1norm.mp3","button_pressed":"1","test_part":"test","phrase":"10bis","condition":"lecture","subject":"s7","trial_type":"audio-button-response","trial_index":24,"time_elapsed":56169,"internal_node_id":"0.0-1.0-0.11"},{"rt":1493.1050000013784,"stimulus":"audio/actual/s10-lecture-10_jean_saigne_beaucoup-10_cut1norm.mp3","button_pressed":"1","test_part":"test","phrase":"10","condition":"lecture","subject":"s10","trial_type":"audio-button-response","trial_index":26,"time_elapsed":58134,"internal_node_id":"0.0-1.0-0.12"},{"rt":2077.049999999872,"stimulus":"audio/actual/s3-lecture-10_jean_saigne_beaucoup-2_cut1norm.mp3","button_pressed":"0","test_part":"test","phrase":"10","condition":"lecture","subject":"s3","trial_type":"audio-button-response","trial_index":28,"time_elapsed":60704,"internal_node_id":"0.0-1.0-0.13"},{"rt":2142.1550000013667,"stimulus":"audio/actual/s1-blind-10bis_jenseigne_beaucoup.mp3","button_pressed":"1","test_part":"test","phrase":"10bis","condition":"blind","subject":"s1","trial_type":"audio-button-response","trial_index":30,"time_elapsed":63353,"internal_node_id":"0.0-1.0-0.14"},{"rt":2351.214999995136,"stimulus":"audio/actual/s3-lecture-10bis_jenseigne_beaucoup-3_cut1norm.mp3","button_pressed":"0","test_part":"test","phrase":"10bis","condition":"lecture","subject":"s3","trial_type":"audio-button-response","trial_index":32,"time_elapsed":66219,"internal_node_id":"0.0-1.0-0.15"},{"rt":1536.3649999999325,"stimulus":"audio/actual/s8-imitation-10bis_jenseigne_beaucoup-11_cut1norm.mp3","button_pressed":"1","test_part":"test","phrase":"10bis","condition":"imitation","subject":"s8","trial_type":"audio-button-response","trial_index":34,"time_elapsed":68180,"internal_node_id":"0.0-1.0-0.16"},{"rt":1789.615000001504,"stimulus":"audio/actual/s3-guide-10bis_jenseigne_beaucoup.mp3","button_pressed":"1","test_part":"test","phrase":"10bis","condition":"guide","subject":"s3","trial_type":"audio-button-response","trial_index":36,"time_elapsed":70375,"internal_node_id":"0.0-1.0-0.17"},{"rt":2780.124999997497,"stimulus":"audio/actual/s10-blind-10bis_jenseigne_beaucoup.mp3","button_pressed":"1","test_part":"test","phrase":"10bis","condition":"blind","subject":"s10","trial_type":"audio-button-response","trial_index":38,"time_elapsed":73669,"internal_node_id":"0.0-1.0-0.18"},{"rt":3582.1799999976065,"stimulus":"audio/actual/s4-blind-10bis_jenseigne_beaucoup.mp3","button_pressed":"2","test_part":"test","phrase":"10bis","condition":"blind","subject":"s4","trial_type":"audio-button-response","trial_index":40,"time_elapsed":77695,"internal_node_id":"0.0-1.0-0.19"},{"rt":2976.7849999989267,"stimulus":"audio/actual/s4-blind-10bis_jenseigne_beaucoup.mp3","button_pressed":"1","test_part":"test","phrase":"10bis","condition":"blind","subject":"s4","trial_type":"audio-button-response","trial_index":41,"time_elapsed":80673,"internal_node_id":"0.0-1.0-1.19-0.19"},{"rt":1842.8449999992154,"stimulus":"audio/actual/s6-lecture-10_jean_saigne_beaucoup-1_cut1norm.mp3","button_pressed":"0","test_part":"test","phrase":"10","condition":"lecture","subject":"s6","trial_type":"audio-button-response","trial_index":43,"time_elapsed":82964,"internal_node_id":"0.0-1.0-0.20"},{"rt":1615.845000000263,"stimulus":"audio/actual/s8-guide-10_jean_saigne_beaucoup.mp3","button_pressed":"1","test_part":"test","phrase":"10","condition":"guide","subject":"s8","trial_type":"audio-button-response","trial_index":45,"time_elapsed":85303,"internal_node_id":"0.0-1.0-0.21"},{"rt":1491.5099999998347,"stimulus":"audio/actual/s7-guide-10_jean_saigne_beaucoup.mp3","button_pressed":"1","test_part":"test","phrase":"10","condition":"guide","subject":"s7","trial_type":"audio-button-response","trial_index":47,"time_elapsed":87128,"internal_node_id":"0.0-1.0-0.22"},{"rt":2387.9000000015367,"stimulus":"audio/actual/s6-lecture-10bis_jenseigne_beaucoup-0_cut1norm.mp3","button_pressed":"1","test_part":"test","phrase":"10bis","condition":"lecture","subject":"s6","trial_type":"audio-button-response","trial_index":49,"time_elapsed":90096,"internal_node_id":"0.0-1.0-0.23"},{"rt":1462.744999997085,"stimulus":"audio/actual/s2-imitation-10_jean_saigne_beaucoup-4_cut1norm.mp3","button_pressed":"0","test_part":"test","phrase":"10","condition":"imitation","subject":"s2","trial_type":"audio-button-response","trial_index":51,"time_elapsed":91992,"internal_node_id":"0.0-1.0-0.24"},{"rt":1442.3200000019278,"stimulus":"audio/actual/s7-imitation-10bis_jenseigne_beaucoup-2_cut1norm.mp3","button_pressed":"1","test_part":"test","phrase":"10bis","condition":"imitation","subject":"s7","trial_type":"audio-button-response","trial_index":53,"time_elapsed":94157,"internal_node_id":"0.0-1.0-0.25"},{"rt":1368.2499999995343,"stimulus":"audio/actual/s10-imitation-10bis_jenseigne_beaucoup-10_cut1norm.mp3","button_pressed":"1","test_part":"test","phrase":"10bis","condition":"imitation","subject":"s10","trial_type":"audio-button-response","trial_index":55,"time_elapsed":95805,"internal_node_id":"0.0-1.0-0.26"},{"rt":1450.7999999987078,"stimulus":"audio/actual/s5-blind-10_jean_saigne_beaucoup.mp3","button_pressed":"0","test_part":"test","phrase":"10","condition":"blind","subject":"s5","trial_type":"audio-button-response","trial_index":57,"time_elapsed":97585,"internal_node_id":"0.0-1.0-0.27"},{"rt":1802.8849999973318,"stimulus":"audio/actual/s10-guide-10bis_jenseigne_beaucoup.mp3","button_pressed":"0","test_part":"test","phrase":"10bis","condition":"guide","subject":"s10","trial_type":"audio-button-response","trial_index":59,"time_elapsed":99778,"internal_node_id":"0.0-1.0-0.28"},{"rt":1745.5300000001444,"stimulus":"audio/actual/s4-lecture-10bis_jenseigne_beaucoup-0_cut1norm.mp3","button_pressed":"1","test_part":"test","phrase":"10bis","condition":"lecture","subject":"s4","trial_type":"audio-button-response","trial_index":61,"time_elapsed":102770,"internal_node_id":"0.0-1.0-0.29"},{"rt":2882.31999999698,"stimulus":"audio/actual/s10-guide-10_jean_saigne_beaucoup.mp3","button_pressed":"0","test_part":"test","phrase":"10","condition":"guide","subject":"s10","trial_type":"audio-button-response","trial_index":63,"time_elapsed":106349,"internal_node_id":"0.0-1.0-0.30"},{"rt":1283.3450000034645,"stimulus":"audio/actual/s4-imitation-10bis_jenseigne_beaucoup-0_cut1norm.mp3","button_pressed":"1","test_part":"test","phrase":"10bis","condition":"imitation","subject":"s4","trial_type":"audio-button-response","trial_index":65,"time_elapsed":108180,"internal_node_id":"0.0-1.0-0.31"},{"rt":1783.3600000012666,"stimulus":"audio/actual/s8-lecture-10_jean_saigne_beaucoup-10_cut1norm.mp3","button_pressed":"0","test_part":"test","phrase":"10","condition":"lecture","subject":"s8","trial_type":"audio-button-response","trial_index":67,"time_elapsed":110424,"internal_node_id":"0.0-1.0-0.32"},{"rt":1346.109999998589,"stimulus":"audio/actual/s7-blind-10bis_jenseigne_beaucoup.mp3","button_pressed":"1","test_part":"test","phrase":"10bis","condition":"blind","subject":"s7","trial_type":"audio-button-response","trial_index":69,"time_elapsed":112320,"internal_node_id":"0.0-1.0-0.33"},{"rt":1969.0900000059628,"stimulus":"audio/actual/s4-guide-10bis_jenseigne_beaucoup.mp3","button_pressed":"1","test_part":"test","phrase":"10bis","condition":"guide","subject":"s4","trial_type":"audio-button-response","trial_index":71,"time_elapsed":114632,"internal_node_id":"0.0-1.0-0.34"},{"rt":1304.550000000745,"stimulus":"audio/actual/s5-lecture-10bis_jenseigne_beaucoup-4_cut1norm.mp3","button_pressed":"1","test_part":"test","phrase":"10bis","condition":"lecture","subject":"s5","trial_type":"audio-button-response","trial_index":73,"time_elapsed":116511,"internal_node_id":"0.0-1.0-0.35"},{"rt":1358.3050000015646,"stimulus":"audio/actual/s6-imitation-10_jean_saigne_beaucoup-5_cut1norm.mp3","button_pressed":"0","test_part":"test","phrase":"10","condition":"imitation","subject":"s6","trial_type":"audio-button-response","trial_index":75,"time_elapsed":118419,"internal_node_id":"0.0-1.0-0.36"},{"rt":1429.9150000006193,"stimulus":"audio/actual/s1-imitation-10bis_jenseigne_beaucoup-10_cut1norm.mp3","button_pressed":"1","test_part":"test","phrase":"10bis","condition":"imitation","subject":"s1","trial_type":"audio-button-response","trial_index":77,"time_elapsed":120347,"internal_node_id":"0.0-1.0-0.37"},{"rt":2063.8749999998254,"stimulus":"audio/actual/s6-guide-10bis_jenseigne_beaucoup.mp3","button_pressed":"1","test_part":"test","phrase":"10bis","condition":"guide","subject":"s6","trial_type":"audio-button-response","trial_index":79,"time_elapsed":122810,"internal_node_id":"0.0-1.0-0.38"},{"rt":3083.035000003292,"stimulus":"audio/actual/s10-lecture-10bis_jenseigne_beaucoup-11_cut1norm.mp3","button_pressed":"0","test_part":"test","phrase":"10bis","condition":"lecture","subject":"s10","trial_type":"audio-button-response","trial_index":81,"time_elapsed":126355,"internal_node_id":"0.0-1.0-0.39"},{"rt":1937.2450000009849,"stimulus":"audio/actual/s1-blind-10_jean_saigne_beaucoup.mp3","button_pressed":"0","test_part":"test","phrase":"10","condition":"blind","subject":"s1","trial_type":"audio-button-response","trial_index":83,"time_elapsed":128531,"internal_node_id":"0.0-1.0-0.40"},{"rt":1357.0550000004005,"stimulus":"audio/actual/s9-imitation-10_jean_saigne_beaucoup-4_cut1norm.mp3","button_pressed":"0","test_part":"test","phrase":"10","condition":"imitation","subject":"s9","trial_type":"audio-button-response","trial_index":85,"time_elapsed":130254,"internal_node_id":"0.0-1.0-0.41"},{"rt":1882.4749999985215,"stimulus":"audio/actual/s8-lecture-10bis_jenseigne_beaucoup-11_cut1norm.mp3","button_pressed":"1","test_part":"test","phrase":"10bis","condition":"lecture","subject":"s8","trial_type":"audio-button-response","trial_index":87,"time_elapsed":132534,"internal_node_id":"0.0-1.0-0.42"},{"rt":1470.0450000018463,"stimulus":"audio/actual/s7-imitation-10_jean_saigne_beaucoup-3_cut1norm.mp3","button_pressed":"0","test_part":"test","phrase":"10","condition":"imitation","subject":"s7","trial_type":"audio-button-response","trial_index":89,"time_elapsed":134418,"internal_node_id":"0.0-1.0-0.43"},{"rt":1282.0100000026287,"stimulus":"audio/actual/s8-blind-10bis_jenseigne_beaucoup.mp3","button_pressed":"1","test_part":"test","phrase":"10bis","condition":"blind","subject":"s8","trial_type":"audio-button-response","trial_index":91,"time_elapsed":136266,"internal_node_id":"0.0-1.0-0.44"},{"rt":1626.9150000007357,"stimulus":"audio/actual/s9-lecture-10bis_jenseigne_beaucoup-2_cut1norm.mp3","button_pressed":"1","test_part":"test","phrase":"10bis","condition":"lecture","subject":"s9","trial_type":"audio-button-response","trial_index":93,"time_elapsed":138302,"internal_node_id":"0.0-1.0-0.45"},{"rt":1221.270000001823,"stimulus":"audio/actual/s8-guide-10bis_jenseigne_beaucoup.mp3","button_pressed":"1","test_part":"test","phrase":"10bis","condition":"guide","subject":"s8","trial_type":"audio-button-response","trial_index":95,"time_elapsed":139910,"internal_node_id":"0.0-1.0-0.46"},{"rt":1140.4099999999744,"stimulus":"audio/actual/s9-blind-10bis_jenseigne_beaucoup.mp3","button_pressed":"1","test_part":"test","phrase":"10bis","condition":"blind","subject":"s9","trial_type":"audio-button-response","trial_index":97,"time_elapsed":141465,"internal_node_id":"0.0-1.0-0.47"},{"rt":1528.0349999957252,"stimulus":"audio/actual/s4-lecture-10_jean_saigne_beaucoup-1_cut1norm.mp3","button_pressed":"0","test_part":"test","phrase":"10","condition":"lecture","subject":"s4","trial_type":"audio-button-response","trial_index":99,"time_elapsed":143352,"internal_node_id":"0.0-1.0-0.48"},{"rt":1957.5849999964703,"stimulus":"audio/actual/s8-blind-10_jean_saigne_beaucoup.mp3","button_pressed":"1","test_part":"test","phrase":"10","condition":"blind","subject":"s8","trial_type":"audio-button-response","trial_index":101,"time_elapsed":145857,"internal_node_id":"0.0-1.0-0.49"},{"rt":2677.5049999996554,"stimulus":"audio/actual/s6-blind-10_jean_saigne_beaucoup.mp3","button_pressed":"0","test_part":"test","phrase":"10","condition":"blind","subject":"s6","trial_type":"audio-button-response","trial_index":103,"time_elapsed":148971,"internal_node_id":"0.0-1.0-0.50"},{"rt":1598.360000003595,"stimulus":"audio/actual/s4-imitation-10_jean_saigne_beaucoup-1_cut1norm.mp3","button_pressed":"0","test_part":"test","phrase":"10","condition":"imitation","subject":"s4","trial_type":"audio-button-response","trial_index":105,"time_elapsed":150849,"internal_node_id":"0.0-1.0-0.51"},{"rt":3053.249999997206,"stimulus":"audio/actual/s5-imitation-10_jean_saigne_beaucoup-10_cut1norm.mp3","button_pressed":"1","test_part":"test","phrase":"10","condition":"imitation","subject":"s5","trial_type":"audio-button-response","trial_index":107,"time_elapsed":155559,"internal_node_id":"0.0-1.0-0.52"},{"rt":1290.5050000044866,"stimulus":"audio/actual/s9-blind-10_jean_saigne_beaucoup.mp3","button_pressed":"1","test_part":"test","phrase":"10","condition":"blind","subject":"s9","trial_type":"audio-button-response","trial_index":109,"time_elapsed":157106,"internal_node_id":"0.0-1.0-0.53"},{"rt":1249.680000000808,"stimulus":"audio/actual/s2-imitation-10bis_jenseigne_beaucoup-5_cut1norm.mp3","button_pressed":"1","test_part":"test","phrase":"10bis","condition":"imitation","subject":"s2","trial_type":"audio-button-response","trial_index":111,"time_elapsed":158886,"internal_node_id":"0.0-1.0-0.54"},{"rt":1730.6599999938044,"stimulus":"audio/actual/s5-guide-10bis_jenseigne_beaucoup.mp3","button_pressed":"1","test_part":"test","phrase":"10bis","condition":"guide","subject":"s5","trial_type":"audio-button-response","trial_index":113,"time_elapsed":161229,"internal_node_id":"0.0-1.0-0.55"},{"rt":2770.18500000122,"stimulus":"audio/actual/s1-lecture-10bis_jenseigne_beaucoup-3_cut1norm.mp3","button_pressed":"1","test_part":"test","phrase":"10bis","condition":"lecture","subject":"s1","trial_type":"audio-button-response","trial_index":115,"time_elapsed":164407,"internal_node_id":"0.0-1.0-0.56"},{"rt":1691.0449999995762,"stimulus":"audio/actual/s5-guide-10_jean_saigne_beaucoup.mp3","button_pressed":"0","test_part":"test","phrase":"10","condition":"guide","subject":"s5","trial_type":"audio-button-response","trial_index":117,"time_elapsed":167341,"internal_node_id":"0.0-1.0-0.57"},{"rt":1360.000000000582,"stimulus":"audio/actual/s9-imitation-10bis_jenseigne_beaucoup-5_cut1norm.mp3","button_pressed":"1","test_part":"test","phrase":"10bis","condition":"imitation","subject":"s9","trial_type":"audio-button-response","trial_index":119,"time_elapsed":169532,"internal_node_id":"0.0-1.0-0.58"},{"rt":1321.4250000019092,"stimulus":"audio/actual/s3-blind-10_jean_saigne_beaucoup.mp3","button_pressed":"0","test_part":"test","phrase":"10","condition":"blind","subject":"s3","trial_type":"audio-button-response","trial_index":121,"time_elapsed":171256,"internal_node_id":"0.0-1.0-0.59"},{"rt":1550.2350000024308,"stimulus":"audio/actual/s5-imitation-10bis_jenseigne_beaucoup-11_cut1norm.mp3","button_pressed":"1","test_part":"test","phrase":"10bis","condition":"imitation","subject":"s5","trial_type":"audio-button-response","trial_index":123,"time_elapsed":174280,"internal_node_id":"0.0-1.0-0.60"},{"rt":1589.175000000978,"stimulus":"audio/actual/s10-imitation-10_jean_saigne_beaucoup-11_cut1norm.mp3","button_pressed":"0","test_part":"test","phrase":"10","condition":"imitation","subject":"s10","trial_type":"audio-button-response","trial_index":125,"time_elapsed":176562,"internal_node_id":"0.0-1.0-0.61"},{"rt":1445.640000005369,"stimulus":"audio/actual/s7-guide-10bis_jenseigne_beaucoup.mp3","button_pressed":"1","test_part":"test","phrase":"10bis","condition":"guide","subject":"s7","trial_type":"audio-button-response","trial_index":127,"time_elapsed":178790,"internal_node_id":"0.0-1.0-0.62"},{"rt":1544.7199999980512,"stimulus":"audio/actual/s1-imitation-10_jean_saigne_beaucoup-11_cut1norm.mp3","button_pressed":"0","test_part":"test","phrase":"10","condition":"imitation","subject":"s1","trial_type":"audio-button-response","trial_index":129,"time_elapsed":180879,"internal_node_id":"0.0-1.0-0.63"},{"rt":323441.8799999985,"stimulus":"audio/actual/s10-blind-10_jean_saigne_beaucoup.mp3","button_pressed":"2","test_part":"test","phrase":"10","condition":"blind","subject":"s10","trial_type":"audio-button-response","trial_index":131,"time_elapsed":504983,"internal_node_id":"0.0-1.0-0.64"},{"rt":2740.8849999992526,"stimulus":"audio/actual/s10-blind-10_jean_saigne_beaucoup.mp3","button_pressed":"1","test_part":"test","phrase":"10","condition":"blind","subject":"s10","trial_type":"audio-button-response","trial_index":132,"time_elapsed":507727,"internal_node_id":"0.0-1.0-1.64-0.64"},{"rt":1534.1300000000047,"stimulus":"audio/actual/s5-blind-10bis_jenseigne_beaucoup.mp3","button_pressed":"1","test_part":"test","phrase":"10bis","condition":"blind","subject":"s5","trial_type":"audio-button-response","trial_index":134,"time_elapsed":510071,"internal_node_id":"0.0-1.0-0.65"},{"rt":1419.4899999929476,"stimulus":"audio/actual/s6-blind-10bis_jenseigne_beaucoup.mp3","button_pressed":"0","test_part":"test","phrase":"10bis","condition":"blind","subject":"s6","trial_type":"audio-button-response","trial_index":136,"time_elapsed":511898,"internal_node_id":"0.0-1.0-0.66"},{"rt":1365.444999995816,"stimulus":"audio/actual/s5-lecture-10_jean_saigne_beaucoup-5_cut1norm.mp3","button_pressed":"1","test_part":"test","phrase":"10","condition":"lecture","subject":"s5","trial_type":"audio-button-response","trial_index":138,"time_elapsed":513778,"internal_node_id":"0.0-1.0-0.67"},{"rt":1587.1950000000652,"stimulus":"audio/actual/s2-blind-10bis_jenseigne_beaucoup.mp3","button_pressed":"1","test_part":"test","phrase":"10bis","condition":"blind","subject":"s2","trial_type":"audio-button-response","trial_index":140,"time_elapsed":515735,"internal_node_id":"0.0-1.0-0.68"},{"rt":1480.3850000025705,"stimulus":"audio/actual/s9-lecture-10_jean_saigne_beaucoup-3_cut1norm.mp3","button_pressed":"0","test_part":"test","phrase":"10","condition":"lecture","subject":"s9","trial_type":"audio-button-response","trial_index":142,"time_elapsed":517559,"internal_node_id":"0.0-1.0-0.69"},{"rt":1616.679999999178,"stimulus":"audio/actual/s1-guide-10bis_jenseigne_beaucoup.mp3","button_pressed":"1","test_part":"test","phrase":"10bis","condition":"guide","subject":"s1","trial_type":"audio-button-response","trial_index":144,"time_elapsed":519924,"internal_node_id":"0.0-1.0-0.70"},{"rt":1389.9799999999814,"stimulus":"audio/actual/s2-guide-10bis_jenseigne_beaucoup.mp3","button_pressed":"0","test_part":"test","phrase":"10bis","condition":"guide","subject":"s2","trial_type":"audio-button-response","trial_index":146,"time_elapsed":521748,"internal_node_id":"0.0-1.0-0.71"},{"rt":1520.4999999987194,"stimulus":"audio/actual/s3-guide-10_jean_saigne_beaucoup.mp3","button_pressed":"0","test_part":"test","phrase":"10","condition":"guide","subject":"s3","trial_type":"audio-button-response","trial_index":148,"time_elapsed":523738,"internal_node_id":"0.0-1.0-0.72"},{"rt":1220.8249999966938,"stimulus":"audio/actual/s8-imitation-10_jean_saigne_beaucoup-10_cut1norm.mp3","button_pressed":"0","test_part":"test","phrase":"10","condition":"imitation","subject":"s8","trial_type":"audio-button-response","trial_index":150,"time_elapsed":525400,"internal_node_id":"0.0-1.0-0.73"},{"rt":1370.374999998603,"stimulus":"audio/actual/s3-blind-10bis_jenseigne_beaucoup.mp3","button_pressed":"1","test_part":"test","phrase":"10bis","condition":"blind","subject":"s3","trial_type":"audio-button-response","trial_index":152,"time_elapsed":527276,"internal_node_id":"0.0-1.0-0.74"},{"rt":1230.23500000278,"stimulus":"audio/actual/s6-imitation-10bis_jenseigne_beaucoup-4_cut1norm.mp3","button_pressed":"1","test_part":"test","phrase":"10bis","condition":"imitation","subject":"s6","trial_type":"audio-button-response","trial_index":154,"time_elapsed":528843,"internal_node_id":"0.0-1.0-0.75"},{"rt":1827.9400000028545,"stimulus":"audio/actual/s9-guide-10_jean_saigne_beaucoup.mp3","button_pressed":"0","test_part":"test","phrase":"10","condition":"guide","subject":"s9","trial_type":"audio-button-response","trial_index":156,"time_elapsed":531152,"internal_node_id":"0.0-1.0-0.76"},{"rt":2521.8200000018114,"stimulus":"audio/actual/s1-guide-10_jean_saigne_beaucoup.mp3","button_pressed":"1","test_part":"test","phrase":"10","condition":"guide","subject":"s1","trial_type":"audio-button-response","trial_index":158,"time_elapsed":534025,"internal_node_id":"0.0-1.0-0.77"},{"rt":1805.6450000003679,"stimulus":"audio/actual/s2-blind-10_jean_saigne_beaucoup.mp3","button_pressed":"1","test_part":"test","phrase":"10","condition":"blind","subject":"s2","trial_type":"audio-button-response","trial_index":160,"time_elapsed":536202,"internal_node_id":"0.0-1.0-0.78"},{"rt":1276.0950000011362,"stimulus":"audio/actual/s7-blind-10_jean_saigne_beaucoup.mp3","button_pressed":"0","test_part":"test","phrase":"10","condition":"blind","subject":"s7","trial_type":"audio-button-response","trial_index":162,"time_elapsed":537781,"internal_node_id":"0.0-1.0-0.79"}]