[{"rt":2951.8049999605864,"stimulus":"audio/actual/s3-imitation-10_jean_saigne_beaucoup-2_cut1norm.mp3","button_pressed":"1","test_part":"test","phrase":"10","condition":"imitation","subject":"s3","trial_type":"audio-button-response","trial_index":1,"time_elapsed":99604,"internal_node_id":"0.0-1.0-0.0"},{"rt":2685.479999985546,"stimulus":"audio/actual/s5-guide-10bis_jenseigne_beaucoup.mp3","button_pressed":"1","test_part":"test","phrase":"10bis","condition":"guide","subject":"s5","trial_type":"audio-button-response","trial_index":3,"time_elapsed":103011,"internal_node_id":"0.0-1.0-0.1"},{"rt":1571.074999985285,"stimulus":"audio/actual/s8-blind-10bis_jenseigne_beaucoup.mp3","button_pressed":"1","test_part":"test","phrase":"10bis","condition":"blind","subject":"s8","trial_type":"audio-button-response","trial_index":5,"time_elapsed":105176,"internal_node_id":"0.0-1.0-0.2"},{"rt":4311.734999995679,"stimulus":"audio/actual/s10-guide-10_jean_saigne_beaucoup.mp3","button_pressed":"0","test_part":"test","phrase":"10","condition":"guide","subject":"s10","trial_type":"audio-button-response","trial_index":7,"time_elapsed":109978,"internal_node_id":"0.0-1.0-0.3"},{"rt":2355.3949999623,"stimulus":"audio/actual/s5-imitation-10_jean_saigne_beaucoup-10_cut1norm.mp3","button_pressed":"0","test_part":"test","phrase":"10","condition":"imitation","subject":"s5","trial_type":"audio-button-response","trial_index":9,"time_elapsed":113425,"internal_node_id":"0.0-1.0-0.4"},{"rt":1926.1050000786781,"stimulus":"audio/actual/s10-imitation-10bis_jenseigne_beaucoup-10_cut1norm.mp3","button_pressed":"1","test_part":"test","phrase":"10bis","condition":"imitation","subject":"s10","trial_type":"audio-button-response","trial_index":11,"time_elapsed":115990,"internal_node_id":"0.0-1.0-0.5"},{"rt":3175.2400000113994,"stimulus":"audio/actual/s6-guide-10bis_jenseigne_beaucoup.mp3","button_pressed":"2","test_part":"test","phrase":"10bis","condition":"guide","subject":"s6","trial_type":"audio-button-response","trial_index":13,"time_elapsed":119741,"internal_node_id":"0.0-1.0-0.6"},{"rt":2478.8249999983236,"stimulus":"audio/actual/s6-guide-10bis_jenseigne_beaucoup.mp3","button_pressed":"0","test_part":"test","phrase":"10bis","condition":"guide","subject":"s6","trial_type":"audio-button-response","trial_index":14,"time_elapsed":122221,"internal_node_id":"0.0-1.0-1.6-0.6"},{"rt":2751.825000043027,"stimulus":"audio/actual/s1-lecture-10_jean_saigne_beaucoup-2_cut1norm.mp3","button_pressed":"1","test_part":"test","phrase":"10","condition":"lecture","subject":"s1","trial_type":"audio-button-response","trial_index":16,"time_elapsed":125769,"internal_node_id":"0.0-1.0-0.7"},{"rt":3064.944999990985,"stimulus":"audio/actual/s2-blind-10bis_jenseigne_beaucoup.mp3","button_pressed":"2","test_part":"test","phrase":"10bis","condition":"blind","subject":"s2","trial_type":"audio-button-response","trial_index":18,"time_elapsed":129354,"internal_node_id":"0.0-1.0-0.8"},{"rt":2133.6499999742955,"stimulus":"audio/actual/s2-blind-10bis_jenseigne_beaucoup.mp3","button_pressed":"0","test_part":"test","phrase":"10bis","condition":"blind","subject":"s2","trial_type":"audio-button-response","trial_index":19,"time_elapsed":131489,"internal_node_id":"0.0-1.0-1.8-0.8"},{"rt":4180.464999983087,"stimulus":"audio/actual/s1-blind-10_jean_saigne_beaucoup.mp3","button_pressed":"2","test_part":"test","phrase":"10","condition":"blind","subject":"s1","trial_type":"audio-button-response","trial_index":21,"time_elapsed":136486,"internal_node_id":"0.0-1.0-0.9"},{"rt":3158.9650000678375,"stimulus":"audio/actual/s1-blind-10_jean_saigne_beaucoup.mp3","button_pressed":"0","test_part":"test","phrase":"10","condition":"blind","subject":"s1","trial_type":"audio-button-response","trial_index":22,"time_elapsed":139646,"internal_node_id":"0.0-1.0-1.9-0.9"},{"rt":2958.500000066124,"stimulus":"audio/actual/s4-guide-10bis_jenseigne_beaucoup.mp3","button_pressed":"2","test_part":"test","phrase":"10bis","condition":"guide","subject":"s4","trial_type":"audio-button-response","trial_index":24,"time_elapsed":143262,"internal_node_id":"0.0-1.0-0.10"},{"rt":2130.9600000968203,"stimulus":"audio/actual/s4-guide-10bis_jenseigne_beaucoup.mp3","button_pressed":"1","test_part":"test","phrase":"10bis","condition":"guide","subject":"s4","trial_type":"audio-button-response","trial_index":25,"time_elapsed":145395,"internal_node_id":"0.0-1.0-1.10-0.10"},{"rt":1570.479999994859,"stimulus":"audio/actual/s5-lecture-10bis_jenseigne_beaucoup-4_cut1norm.mp3","button_pressed":"1","test_part":"test","phrase":"10bis","condition":"lecture","subject":"s5","trial_type":"audio-button-response","trial_index":27,"time_elapsed":147653,"internal_node_id":"0.0-1.0-0.11"},{"rt":1991.4700000081211,"stimulus":"audio/actual/s4-lecture-10_jean_saigne_beaucoup-1_cut1norm.mp3","button_pressed":"0","test_part":"test","phrase":"10","condition":"lecture","subject":"s4","trial_type":"audio-button-response","trial_index":29,"time_elapsed":150525,"internal_node_id":"0.0-1.0-0.12"},{"rt":2334.015000029467,"stimulus":"audio/actual/s8-imitation-10bis_jenseigne_beaucoup-11_cut1norm.mp3","button_pressed":"2","test_part":"test","phrase":"10bis","condition":"imitation","subject":"s8","trial_type":"audio-button-response","trial_index":31,"time_elapsed":153773,"internal_node_id":"0.0-1.0-0.13"},{"rt":2392.655000090599,"stimulus":"audio/actual/s8-imitation-10bis_jenseigne_beaucoup-11_cut1norm.mp3","button_pressed":"1","test_part":"test","phrase":"10bis","condition":"imitation","subject":"s8","trial_type":"audio-button-response","trial_index":32,"time_elapsed":156172,"internal_node_id":"0.0-1.0-1.13-0.13"},{"rt":2936.049999902025,"stimulus":"audio/actual/s6-lecture-10bis_jenseigne_beaucoup-0_cut1norm.mp3","button_pressed":"1","test_part":"test","phrase":"10bis","condition":"lecture","subject":"s6","trial_type":"audio-button-response","trial_index":34,"time_elapsed":160780,"internal_node_id":"0.0-1.0-0.14"},{"rt":2534.2749999836087,"stimulus":"audio/actual/s10-guide-10bis_jenseigne_beaucoup.mp3","button_pressed":"1","test_part":"test","phrase":"10bis","condition":"guide","subject":"s10","trial_type":"audio-button-response","trial_index":36,"time_elapsed":163874,"internal_node_id":"0.0-1.0-0.15"},{"rt":1660.8449999475852,"stimulus":"audio/actual/s5-lecture-10_jean_saigne_beaucoup-5_cut1norm.mp3","button_pressed":"0","test_part":"test","phrase":"10","condition":"lecture","subject":"s5","trial_type":"audio-button-response","trial_index":38,"time_elapsed":166121,"internal_node_id":"0.0-1.0-0.16"},{"rt":2580.710000009276,"stimulus":"audio/actual/s7-imitation-10_jean_saigne_beaucoup-3_cut1norm.mp3","button_pressed":"0","test_part":"test","phrase":"10","condition":"imitation","subject":"s7","trial_type":"audio-button-response","trial_index":40,"time_elapsed":169146,"internal_node_id":"0.0-1.0-0.17"},{"rt":2949.070000089705,"stimulus":"audio/actual/s1-guide-10bis_jenseigne_beaucoup.mp3","button_pressed":"2","test_part":"test","phrase":"10bis","condition":"guide","subject":"s1","trial_type":"audio-button-response","trial_index":42,"time_elapsed":172475,"internal_node_id":"0.0-1.0-0.18"},{"rt":2617.684999946505,"stimulus":"audio/actual/s1-guide-10bis_jenseigne_beaucoup.mp3","button_pressed":"0","test_part":"test","phrase":"10bis","condition":"guide","subject":"s1","trial_type":"audio-button-response","trial_index":43,"time_elapsed":175094,"internal_node_id":"0.0-1.0-1.18-0.18"},{"rt":2916.594999958761,"stimulus":"audio/actual/s2-imitation-10_jean_saigne_beaucoup-4_cut1norm.mp3","button_pressed":"0","test_part":"test","phrase":"10","condition":"imitation","subject":"s2","trial_type":"audio-button-response","trial_index":45,"time_elapsed":178600,"internal_node_id":"0.0-1.0-0.19"},{"rt":2251.4599999412894,"stimulus":"audio/actual/s10-imitation-10_jean_saigne_beaucoup-11_cut1norm.mp3","button_pressed":"1","test_part":"test","phrase":"10","condition":"imitation","subject":"s10","trial_type":"audio-button-response","trial_index":47,"time_elapsed":181290,"internal_node_id":"0.0-1.0-0.20"},{"rt":2902.5350000010803,"stimulus":"audio/actual/s9-imitation-10bis_jenseigne_beaucoup-5_cut1norm.mp3","button_pressed":"2","test_part":"test","phrase":"10bis","condition":"imitation","subject":"s9","trial_type":"audio-button-response","trial_index":49,"time_elapsed":184965,"internal_node_id":"0.0-1.0-0.21"},{"rt":2447.4649999756366,"stimulus":"audio/actual/s9-imitation-10bis_jenseigne_beaucoup-5_cut1norm.mp3","button_pressed":"0","test_part":"test","phrase":"10bis","condition":"imitation","subject":"s9","trial_type":"audio-button-response","trial_index":50,"time_elapsed":187414,"internal_node_id":"0.0-1.0-1.21-0.21"},{"rt":1785.6150000588968,"stimulus":"audio/actual/s8-blind-10_jean_saigne_beaucoup.mp3","button_pressed":"0","test_part":"test","phrase":"10","condition":"blind","subject":"s8","trial_type":"audio-button-response","trial_index":52,"time_elapsed":189629,"internal_node_id":"0.0-1.0-0.22"},{"rt":2813.6500000255182,"stimulus":"audio/actual/s2-blind-10_jean_saigne_beaucoup.mp3","button_pressed":"1","test_part":"test","phrase":"10","condition":"blind","subject":"s2","trial_type":"audio-button-response","trial_index":54,"time_elapsed":192837,"internal_node_id":"0.0-1.0-0.23"},{"rt":2252.1900000283495,"stimulus":"audio/actual/s6-lecture-10_jean_saigne_beaucoup-1_cut1norm.mp3","button_pressed":"0","test_part":"test","phrase":"10","condition":"lecture","subject":"s6","trial_type":"audio-button-response","trial_index":56,"time_elapsed":195346,"internal_node_id":"0.0-1.0-0.24"},{"rt":1806.499999947846,"stimulus":"audio/actual/s2-guide-10_jean_saigne_beaucoup.mp3","button_pressed":"0","test_part":"test","phrase":"10","condition":"guide","subject":"s2","trial_type":"audio-button-response","trial_index":58,"time_elapsed":197606,"internal_node_id":"0.0-1.0-0.25"},{"rt":2010.6950000626966,"stimulus":"audio/actual/s10-blind-10bis_jenseigne_beaucoup.mp3","button_pressed":"1","test_part":"test","phrase":"10bis","condition":"blind","subject":"s10","trial_type":"audio-button-response","trial_index":60,"time_elapsed":200007,"internal_node_id":"0.0-1.0-0.26"},{"rt":4133.9650000445545,"stimulus":"audio/actual/s8-lecture-10bis_jenseigne_beaucoup-11_cut1norm.mp3","button_pressed":"0","test_part":"test","phrase":"10bis","condition":"lecture","subject":"s8","trial_type":"audio-button-response","trial_index":62,"time_elapsed":204880,"internal_node_id":"0.0-1.0-0.27"},{"rt":1668.885000050068,"stimulus":"audio/actual/s10-lecture-10bis_jenseigne_beaucoup-11_cut1norm.mp3","button_pressed":"1","test_part":"test","phrase":"10bis","condition":"lecture","subject":"s10","trial_type":"audio-button-response","trial_index":64,"time_elapsed":206882,"internal_node_id":"0.0-1.0-0.28"},{"rt":2193.585000000894,"stimulus":"audio/actual/s3-blind-10_jean_saigne_beaucoup.mp3","button_pressed":"0","test_part":"test","phrase":"10","condition":"blind","subject":"s3","trial_type":"audio-button-response","trial_index":66,"time_elapsed":209434,"internal_node_id":"0.0-1.0-0.29"},{"rt":2455.03000007011,"stimulus":"audio/actual/s1-imitation-10bis_jenseigne_beaucoup-10_cut1norm.mp3","button_pressed":"1","test_part":"test","phrase":"10bis","condition":"imitation","subject":"s1","trial_type":"audio-button-response","trial_index":68,"time_elapsed":212283,"internal_node_id":"0.0-1.0-0.30"},{"rt":1889.1549999825656,"stimulus":"audio/actual/s3-lecture-10_jean_saigne_beaucoup-2_cut1norm.mp3","button_pressed":"0","test_part":"test","phrase":"10","condition":"lecture","subject":"s3","trial_type":"audio-button-response","trial_index":70,"time_elapsed":214756,"internal_node_id":"0.0-1.0-0.31"},{"rt":1575.5600000265986,"stimulus":"audio/actual/s7-guide-10bis_jenseigne_beaucoup.mp3","button_pressed":"1","test_part":"test","phrase":"10bis","condition":"guide","subject":"s7","trial_type":"audio-button-response","trial_index":72,"time_elapsed":216863,"internal_node_id":"0.0-1.0-0.32"},{"rt":2305.1500000292435,"stimulus":"audio/actual/s1-imitation-10_jean_saigne_beaucoup-11_cut1norm.mp3","button_pressed":"0","test_part":"test","phrase":"10","condition":"imitation","subject":"s1","trial_type":"audio-button-response","trial_index":74,"time_elapsed":219491,"internal_node_id":"0.0-1.0-0.33"},{"rt":1578.3749999245629,"stimulus":"audio/actual/s5-blind-10bis_jenseigne_beaucoup.mp3","button_pressed":"1","test_part":"test","phrase":"10bis","condition":"blind","subject":"s5","trial_type":"audio-button-response","trial_index":76,"time_elapsed":221494,"internal_node_id":"0.0-1.0-0.34"},{"rt":4266.285000019707,"stimulus":"audio/actual/s9-blind-10bis_jenseigne_beaucoup.mp3","button_pressed":"0","test_part":"test","phrase":"10bis","condition":"blind","subject":"s9","trial_type":"audio-button-response","trial_index":78,"time_elapsed":226254,"internal_node_id":"0.0-1.0-0.35"},{"rt":1676.370000001043,"stimulus":"audio/actual/s4-imitation-10bis_jenseigne_beaucoup-0_cut1norm.mp3","button_pressed":"0","test_part":"test","phrase":"10bis","condition":"imitation","subject":"s4","trial_type":"audio-button-response","trial_index":80,"time_elapsed":228258,"internal_node_id":"0.0-1.0-0.36"},{"rt":1909.1899999184534,"stimulus":"audio/actual/s6-blind-10bis_jenseigne_beaucoup.mp3","button_pressed":"0","test_part":"test","phrase":"10bis","condition":"blind","subject":"s6","trial_type":"audio-button-response","trial_index":82,"time_elapsed":230517,"internal_node_id":"0.0-1.0-0.37"},{"rt":2805.2799999713898,"stimulus":"audio/actual/s8-guide-10_jean_saigne_beaucoup.mp3","button_pressed":"0","test_part":"test","phrase":"10","condition":"guide","subject":"s8","trial_type":"audio-button-response","trial_index":84,"time_elapsed":233605,"internal_node_id":"0.0-1.0-0.38"},{"rt":2058.545000036247,"stimulus":"audio/actual/s3-blind-10bis_jenseigne_beaucoup.mp3","button_pressed":"0","test_part":"test","phrase":"10bis","condition":"blind","subject":"s3","trial_type":"audio-button-response","trial_index":86,"time_elapsed":235978,"internal_node_id":"0.0-1.0-0.39"},{"rt":2280.62500001397,"stimulus":"audio/actual/s9-lecture-10bis_jenseigne_beaucoup-2_cut1norm.mp3","button_pressed":"1","test_part":"test","phrase":"10bis","condition":"lecture","subject":"s9","trial_type":"audio-button-response","trial_index":88,"time_elapsed":238554,"internal_node_id":"0.0-1.0-0.40"},{"rt":2915.0949999457225,"stimulus":"audio/actual/s7-blind-10bis_jenseigne_beaucoup.mp3","button_pressed":"0","test_part":"test","phrase":"10bis","condition":"blind","subject":"s7","trial_type":"audio-button-response","trial_index":90,"time_elapsed":241849,"internal_node_id":"0.0-1.0-0.41"},{"rt":2316.400000010617,"stimulus":"audio/actual/s1-blind-10bis_jenseigne_beaucoup.mp3","button_pressed":"1","test_part":"test","phrase":"10bis","condition":"blind","subject":"s1","trial_type":"audio-button-response","trial_index":92,"time_elapsed":244519,"internal_node_id":"0.0-1.0-0.42"},{"rt":2193.250000011176,"stimulus":"audio/actual/s4-blind-10_jean_saigne_beaucoup.mp3","button_pressed":"1","test_part":"test","phrase":"10","condition":"blind","subject":"s4","trial_type":"audio-button-response","trial_index":94,"time_elapsed":247056,"internal_node_id":"0.0-1.0-0.43"},{"rt":2344.1599999787286,"stimulus":"audio/actual/s10-blind-10_jean_saigne_beaucoup.mp3","button_pressed":"1","test_part":"test","phrase":"10","condition":"blind","subject":"s10","trial_type":"audio-button-response","trial_index":96,"time_elapsed":249913,"internal_node_id":"0.0-1.0-0.44"},{"rt":1718.2350000366569,"stimulus":"audio/actual/s3-imitation-10bis_jenseigne_beaucoup-3_cut1norm.mp3","button_pressed":"1","test_part":"test","phrase":"10bis","condition":"imitation","subject":"s3","trial_type":"audio-button-response","trial_index":98,"time_elapsed":252017,"internal_node_id":"0.0-1.0-0.45"},{"rt":1758.8599999435246,"stimulus":"audio/actual/s7-guide-10_jean_saigne_beaucoup.mp3","button_pressed":"0","test_part":"test","phrase":"10","condition":"guide","subject":"s7","trial_type":"audio-button-response","trial_index":100,"time_elapsed":254083,"internal_node_id":"0.0-1.0-0.46"},{"rt":3121.5200000442564,"stimulus":"audio/actual/s3-guide-10_jean_saigne_beaucoup.mp3","button_pressed":"1","test_part":"test","phrase":"10","condition":"guide","subject":"s3","trial_type":"audio-button-response","trial_index":102,"time_elapsed":257464,"internal_node_id":"0.0-1.0-0.47"},{"rt":2636.37999992352,"stimulus":"audio/actual/s1-lecture-10bis_jenseigne_beaucoup-3_cut1norm.mp3","button_pressed":"1","test_part":"test","phrase":"10bis","condition":"lecture","subject":"s1","trial_type":"audio-button-response","trial_index":104,"time_elapsed":260317,"internal_node_id":"0.0-1.0-0.48"},{"rt":1832.0000000530854,"stimulus":"audio/actual/s9-blind-10_jean_saigne_beaucoup.mp3","button_pressed":"0","test_part":"test","phrase":"10","condition":"blind","subject":"s9","trial_type":"audio-button-response","trial_index":106,"time_elapsed":262375,"internal_node_id":"0.0-1.0-0.49"},{"rt":2230.5649999761954,"stimulus":"audio/actual/s6-blind-10_jean_saigne_beaucoup.mp3","button_pressed":"1","test_part":"test","phrase":"10","condition":"blind","subject":"s6","trial_type":"audio-button-response","trial_index":108,"time_elapsed":264782,"internal_node_id":"0.0-1.0-0.50"},{"rt":1513.9349999371916,"stimulus":"audio/actual/s9-guide-10_jean_saigne_beaucoup.mp3","button_pressed":"1","test_part":"test","phrase":"10","condition":"guide","subject":"s9","trial_type":"audio-button-response","trial_index":110,"time_elapsed":266479,"internal_node_id":"0.0-1.0-0.51"},{"rt":2595.8250000840053,"stimulus":"audio/actual/s4-lecture-10bis_jenseigne_beaucoup-0_cut1norm.mp3","button_pressed":"0","test_part":"test","phrase":"10bis","condition":"lecture","subject":"s4","trial_type":"audio-button-response","trial_index":112,"time_elapsed":269259,"internal_node_id":"0.0-1.0-0.52"},{"rt":2272.9349998990074,"stimulus":"audio/actual/s5-blind-10_jean_saigne_beaucoup.mp3","button_pressed":"1","test_part":"test","phrase":"10","condition":"blind","subject":"s5","trial_type":"audio-button-response","trial_index":114,"time_elapsed":271780,"internal_node_id":"0.0-1.0-0.53"},{"rt":1467.339999973774,"stimulus":"audio/actual/s7-imitation-10bis_jenseigne_beaucoup-2_cut1norm.mp3","button_pressed":"1","test_part":"test","phrase":"10bis","condition":"imitation","subject":"s7","trial_type":"audio-button-response","trial_index":116,"time_elapsed":273483,"internal_node_id":"0.0-1.0-0.54"},{"rt":1574.4299999205396,"stimulus":"audio/actual/s6-guide-10_jean_saigne_beaucoup.mp3","button_pressed":"1","test_part":"test","phrase":"10","condition":"guide","subject":"s6","trial_type":"audio-button-response","trial_index":118,"time_elapsed":275308,"internal_node_id":"0.0-1.0-0.55"},{"rt":2002.5249999016523,"stimulus":"audio/actual/s4-imitation-10_jean_saigne_beaucoup-1_cut1norm.mp3","button_pressed":"0","test_part":"test","phrase":"10","condition":"imitation","subject":"s4","trial_type":"audio-button-response","trial_index":120,"time_elapsed":277566,"internal_node_id":"0.0-1.0-0.56"},{"rt":1700.8699999423698,"stimulus":"audio/actual/s5-imitation-10bis_jenseigne_beaucoup-11_cut1norm.mp3","button_pressed":"1","test_part":"test","phrase":"10bis","condition":"imitation","subject":"s5","trial_type":"audio-button-response","trial_index":122,"time_elapsed":279641,"internal_node_id":"0.0-1.0-0.57"},{"rt":1452.0500000799075,"stimulus":"audio/actual/s2-guide-10bis_jenseigne_beaucoup.mp3","button_pressed":"1","test_part":"test","phrase":"10bis","condition":"guide","subject":"s2","trial_type":"audio-button-response","trial_index":124,"time_elapsed":281333,"internal_node_id":"0.0-1.0-0.58"},{"rt":1565.584999974817,"stimulus":"audio/actual/s4-guide-10_jean_saigne_beaucoup.mp3","button_pressed":"0","test_part":"test","phrase":"10","condition":"guide","subject":"s4","trial_type":"audio-button-response","trial_index":126,"time_elapsed":283183,"internal_node_id":"0.0-1.0-0.59"},{"rt":1981.444999924861,"stimulus":"audio/actual/s7-lecture-10_jean_saigne_beaucoup-8_cut1norm.mp3","button_pressed":"0","test_part":"test","phrase":"10","condition":"lecture","subject":"s7","trial_type":"audio-button-response","trial_index":128,"time_elapsed":285653,"internal_node_id":"0.0-1.0-0.60"},{"rt":1732.6099999481812,"stimulus":"audio/actual/s2-lecture-10_jean_saigne_beaucoup-7_cut1norm.mp3","button_pressed":"0","test_part":"test","phrase":"10","condition":"lecture","subject":"s2","trial_type":"audio-button-response","trial_index":130,"time_elapsed":287685,"internal_node_id":"0.0-1.0-0.61"},{"rt":1852.7000000467524,"stimulus":"audio/actual/s9-lecture-10_jean_saigne_beaucoup-3_cut1norm.mp3","button_pressed":"0","test_part":"test","phrase":"10","condition":"lecture","subject":"s9","trial_type":"audio-button-response","trial_index":132,"time_elapsed":289948,"internal_node_id":"0.0-1.0-0.62"},{"rt":1815.8149999799207,"stimulus":"audio/actual/s6-imitation-10_jean_saigne_beaucoup-5_cut1norm.mp3","button_pressed":"0","test_part":"test","phrase":"10","condition":"imitation","subject":"s6","trial_type":"audio-button-response","trial_index":134,"time_elapsed":292267,"internal_node_id":"0.0-1.0-0.63"},{"rt":1484.6499999985099,"stimulus":"audio/actual/s9-guide-10bis_jenseigne_beaucoup.mp3","button_pressed":"0","test_part":"test","phrase":"10bis","condition":"guide","subject":"s9","trial_type":"audio-button-response","trial_index":136,"time_elapsed":294212,"internal_node_id":"0.0-1.0-0.64"},{"rt":2586.045000003651,"stimulus":"audio/actual/s3-lecture-10bis_jenseigne_beaucoup-3_cut1norm.mp3","button_pressed":"1","test_part":"test","phrase":"10bis","condition":"lecture","subject":"s3","trial_type":"audio-button-response","trial_index":138,"time_elapsed":297235,"internal_node_id":"0.0-1.0-0.65"},{"rt":3016.4199999999255,"stimulus":"audio/actual/s4-blind-10bis_jenseigne_beaucoup.mp3","button_pressed":"1","test_part":"test","phrase":"10bis","condition":"blind","subject":"s4","trial_type":"audio-button-response","trial_index":140,"time_elapsed":300612,"internal_node_id":"0.0-1.0-0.66"},{"rt":2047.939999960363,"stimulus":"audio/actual/s7-lecture-10bis_jenseigne_beaucoup-9_cut1norm.mp3","button_pressed":"0","test_part":"test","phrase":"10bis","condition":"lecture","subject":"s7","trial_type":"audio-button-response","trial_index":142,"time_elapsed":303086,"internal_node_id":"0.0-1.0-0.67"},{"rt":1531.444999971427,"stimulus":"audio/actual/s8-lecture-10_jean_saigne_beaucoup-10_cut1norm.mp3","button_pressed":"0","test_part":"test","phrase":"10","condition":"lecture","subject":"s8","trial_type":"audio-button-response","trial_index":144,"time_elapsed":304863,"internal_node_id":"0.0-1.0-0.68"},{"rt":1444.885000004433,"stimulus":"audio/actual/s9-imitation-10_jean_saigne_beaucoup-4_cut1norm.mp3","button_pressed":"0","test_part":"test","phrase":"10","condition":"imitation","subject":"s9","trial_type":"audio-button-response","trial_index":146,"time_elapsed":306636,"internal_node_id":"0.0-1.0-0.69"},{"rt":2261.030000052415,"stimulus":"audio/actual/s2-lecture-10bis_jenseigne_beaucoup-6_cut1norm.mp3","button_pressed":"1","test_part":"test","phrase":"10bis","condition":"lecture","subject":"s2","trial_type":"audio-button-response","trial_index":148,"time_elapsed":309225,"internal_node_id":"0.0-1.0-0.70"},{"rt":3990.220000036061,"stimulus":"audio/actual/s8-guide-10bis_jenseigne_beaucoup.mp3","button_pressed":"0","test_part":"test","phrase":"10bis","condition":"guide","subject":"s8","trial_type":"audio-button-response","trial_index":150,"time_elapsed":313759,"internal_node_id":"0.0-1.0-0.71"},{"rt":2768.9050000626594,"stimulus":"audio/actual/s7-blind-10_jean_saigne_beaucoup.mp3","button_pressed":"0","test_part":"test","phrase":"10","condition":"blind","subject":"s7","trial_type":"audio-button-response","trial_index":152,"time_elapsed":316741,"internal_node_id":"0.0-1.0-0.72"},{"rt":1558.6699999403208,"stimulus":"audio/actual/s6-imitation-10bis_jenseigne_beaucoup-4_cut1norm.mp3","button_pressed":"0","test_part":"test","phrase":"10bis","condition":"imitation","subject":"s6","trial_type":"audio-button-response","trial_index":154,"time_elapsed":318483,"internal_node_id":"0.0-1.0-0.73"},{"rt":2472.6250000530854,"stimulus":"audio/actual/s5-guide-10_jean_saigne_beaucoup.mp3","button_pressed":"0","test_part":"test","phrase":"10","condition":"guide","subject":"s5","trial_type":"audio-button-response","trial_index":156,"time_elapsed":321244,"internal_node_id":"0.0-1.0-0.74"},{"rt":2082.590000005439,"stimulus":"audio/actual/s2-imitation-10bis_jenseigne_beaucoup-5_cut1norm.mp3","button_pressed":"1","test_part":"test","phrase":"10bis","condition":"imitation","subject":"s2","trial_type":"audio-button-response","trial_index":158,"time_elapsed":323670,"internal_node_id":"0.0-1.0-0.75"},{"rt":1822.775000007823,"stimulus":"audio/actual/s3-guide-10bis_jenseigne_beaucoup.mp3","button_pressed":"1","test_part":"test","phrase":"10bis","condition":"guide","subject":"s3","trial_type":"audio-button-response","trial_index":160,"time_elapsed":325643,"internal_node_id":"0.0-1.0-0.76"},{"rt":1519.7599999373779,"stimulus":"audio/actual/s8-imitation-10_jean_saigne_beaucoup-10_cut1norm.mp3","button_pressed":"0","test_part":"test","phrase":"10","condition":"imitation","subject":"s8","trial_type":"audio-button-response","trial_index":162,"time_elapsed":327442,"internal_node_id":"0.0-1.0-0.77"},{"rt":1745.3600000590086,"stimulus":"audio/actual/s1-guide-10_jean_saigne_beaucoup.mp3","button_pressed":"0","test_part":"test","phrase":"10","condition":"guide","subject":"s1","trial_type":"audio-button-response","trial_index":164,"time_elapsed":329421,"internal_node_id":"0.0-1.0-0.78"},{"rt":2007.1149999275804,"stimulus":"audio/actual/s10-lecture-10_jean_saigne_beaucoup-10_cut1norm.mp3","button_pressed":"1","test_part":"test","phrase":"10","condition":"lecture","subject":"s10","trial_type":"audio-button-response","trial_index":166,"time_elapsed":331656,"internal_node_id":"0.0-1.0-0.79"}]	