[{"rt":2304.650000000038,"stimulus":"audio/actual/s8-blind-10_jean_saigne_beaucoup.mp3","button_pressed":"1","test_part":"test","phrase":"10","condition":"blind","subject":"s8","trial_type":"audio-button-response","trial_index":1,"time_elapsed":4966,"internal_node_id":"0.0-1.0-0.0"},{"rt":3407.3500000013155,"stimulus":"audio/actual/s10-guide-10_jean_saigne_beaucoup.mp3","button_pressed":"0","test_part":"test","phrase":"10","condition":"guide","subject":"s10","trial_type":"audio-button-response","trial_index":3,"time_elapsed":9418,"internal_node_id":"0.0-1.0-0.1"},{"rt":2716.034999999465,"stimulus":"audio/actual/s8-guide-10bis_jenseigne_beaucoup.mp3","button_pressed":"1","test_part":"test","phrase":"10bis","condition":"guide","subject":"s8","trial_type":"audio-button-response","trial_index":5,"time_elapsed":13151,"internal_node_id":"0.0-1.0-0.2"},{"rt":2094.4650000001275,"stimulus":"audio/actual/s10-lecture-10bis_jenseigne_beaucoup-11_cut1norm.mp3","button_pressed":"0","test_part":"test","phrase":"10bis","condition":"lecture","subject":"s10","trial_type":"audio-button-response","trial_index":7,"time_elapsed":16537,"internal_node_id":"0.0-1.0-0.3"},{"rt":2823.3799999998155,"stimulus":"audio/actual/s4-guide-10_jean_saigne_beaucoup.mp3","button_pressed":"0","test_part":"test","phrase":"10","condition":"guide","subject":"s4","trial_type":"audio-button-response","trial_index":9,"time_elapsed":20433,"internal_node_id":"0.0-1.0-0.4"},{"rt":1484.5449999993434,"stimulus":"audio/actual/s5-lecture-10bis_jenseigne_beaucoup-4_cut1norm.mp3","button_pressed":"1","test_part":"test","phrase":"10bis","condition":"lecture","subject":"s5","trial_type":"audio-button-response","trial_index":11,"time_elapsed":22543,"internal_node_id":"0.0-1.0-0.5"},{"rt":1624.9550000011368,"stimulus":"audio/actual/s7-imitation-10_jean_saigne_beaucoup-3_cut1norm.mp3","button_pressed":"0","test_part":"test","phrase":"10","condition":"imitation","subject":"s7","trial_type":"audio-button-response","trial_index":13,"time_elapsed":24595,"internal_node_id":"0.0-1.0-0.6"},{"rt":2106.0099999995145,"stimulus":"audio/actual/s1-guide-10_jean_saigne_beaucoup.mp3","button_pressed":"0","test_part":"test","phrase":"10","condition":"guide","subject":"s1","trial_type":"audio-button-response","trial_index":15,"time_elapsed":27036,"internal_node_id":"0.0-1.0-0.7"},{"rt":2635.420000000522,"stimulus":"audio/actual/s4-blind-10_jean_saigne_beaucoup.mp3","button_pressed":"1","test_part":"test","phrase":"10","condition":"blind","subject":"s4","trial_type":"audio-button-response","trial_index":17,"time_elapsed":30061,"internal_node_id":"0.0-1.0-0.8"},{"rt":2610.2499999997235,"stimulus":"audio/actual/s1-lecture-10_jean_saigne_beaucoup-2_cut1norm.mp3","button_pressed":"1","test_part":"test","phrase":"10","condition":"lecture","subject":"s1","trial_type":"audio-button-response","trial_index":19,"time_elapsed":32980,"internal_node_id":"0.0-1.0-0.9"},{"rt":1604.0499999999156,"stimulus":"audio/actual/s10-imitation-10_jean_saigne_beaucoup-11_cut1norm.mp3","button_pressed":"0","test_part":"test","phrase":"10","condition":"imitation","subject":"s10","trial_type":"audio-button-response","trial_index":21,"time_elapsed":35053,"internal_node_id":"0.0-1.0-0.10"},{"rt":1547.179999999571,"stimulus":"audio/actual/s9-imitation-10_jean_saigne_beaucoup-4_cut1norm.mp3","button_pressed":"0","test_part":"test","phrase":"10","condition":"imitation","subject":"s9","trial_type":"audio-button-response","trial_index":23,"time_elapsed":36996,"internal_node_id":"0.0-1.0-0.11"},{"rt":2443.8850000005914,"stimulus":"audio/actual/s6-guide-10_jean_saigne_beaucoup.mp3","button_pressed":"0","test_part":"test","phrase":"10","condition":"guide","subject":"s6","trial_type":"audio-button-response","trial_index":25,"time_elapsed":40045,"internal_node_id":"0.0-1.0-0.12"},{"rt":2770.8549999988463,"stimulus":"audio/actual/s10-blind-10bis_jenseigne_beaucoup.mp3","button_pressed":"0","test_part":"test","phrase":"10bis","condition":"blind","subject":"s10","trial_type":"audio-button-response","trial_index":27,"time_elapsed":43228,"internal_node_id":"0.0-1.0-0.13"},{"rt":1376.800000000003,"stimulus":"audio/actual/s4-guide-10bis_jenseigne_beaucoup.mp3","button_pressed":"1","test_part":"test","phrase":"10bis","condition":"guide","subject":"s4","trial_type":"audio-button-response","trial_index":29,"time_elapsed":44874,"internal_node_id":"0.0-1.0-0.14"},{"rt":1500.7949999999255,"stimulus":"audio/actual/s7-guide-10_jean_saigne_beaucoup.mp3","button_pressed":"0","test_part":"test","phrase":"10","condition":"guide","subject":"s7","trial_type":"audio-button-response","trial_index":31,"time_elapsed":46654,"internal_node_id":"0.0-1.0-0.15"},{"rt":1411.7800000003626,"stimulus":"audio/actual/s3-lecture-10bis_jenseigne_beaucoup-3_cut1norm.mp3","button_pressed":"1","test_part":"test","phrase":"10bis","condition":"lecture","subject":"s3","trial_type":"audio-button-response","trial_index":33,"time_elapsed":48284,"internal_node_id":"0.0-1.0-0.16"},{"rt":2261.049999999159,"stimulus":"audio/actual/s1-guide-10bis_jenseigne_beaucoup.mp3","button_pressed":"0","test_part":"test","phrase":"10bis","condition":"guide","subject":"s1","trial_type":"audio-button-response","trial_index":35,"time_elapsed":50758,"internal_node_id":"0.0-1.0-0.17"},{"rt":2321.0999999992055,"stimulus":"audio/actual/s5-blind-10_jean_saigne_beaucoup.mp3","button_pressed":"1","test_part":"test","phrase":"10","condition":"blind","subject":"s5","trial_type":"audio-button-response","trial_index":37,"time_elapsed":53290,"internal_node_id":"0.0-1.0-0.18"},{"rt":1260.5750000002445,"stimulus":"audio/actual/s2-blind-10bis_jenseigne_beaucoup.mp3","button_pressed":"1","test_part":"test","phrase":"10bis","condition":"blind","subject":"s2","trial_type":"audio-button-response","trial_index":39,"time_elapsed":54902,"internal_node_id":"0.0-1.0-0.19"},{"rt":1560.829999998532,"stimulus":"audio/actual/s5-imitation-10bis_jenseigne_beaucoup-11_cut1norm.mp3","button_pressed":"0","test_part":"test","phrase":"10bis","condition":"imitation","subject":"s5","trial_type":"audio-button-response","trial_index":41,"time_elapsed":56889,"internal_node_id":"0.0-1.0-0.20"},{"rt":1915.6050000001414,"stimulus":"audio/actual/s8-lecture-10bis_jenseigne_beaucoup-11_cut1norm.mp3","button_pressed":"0","test_part":"test","phrase":"10bis","condition":"lecture","subject":"s8","trial_type":"audio-button-response","trial_index":43,"time_elapsed":59252,"internal_node_id":"0.0-1.0-0.21"},{"rt":1211.1150000000634,"stimulus":"audio/actual/s7-blind-10bis_jenseigne_beaucoup.mp3","button_pressed":"1","test_part":"test","phrase":"10bis","condition":"blind","subject":"s7","trial_type":"audio-button-response","trial_index":45,"time_elapsed":61187,"internal_node_id":"0.0-1.0-0.22"},{"rt":1293.1699999990087,"stimulus":"audio/actual/s8-imitation-10_jean_saigne_beaucoup-10_cut1norm.mp3","button_pressed":"0","test_part":"test","phrase":"10","condition":"imitation","subject":"s8","trial_type":"audio-button-response","trial_index":47,"time_elapsed":62877,"internal_node_id":"0.0-1.0-0.23"},{"rt":1301.4800000000832,"stimulus":"audio/actual/s2-blind-10_jean_saigne_beaucoup.mp3","button_pressed":"1","test_part":"test","phrase":"10","condition":"blind","subject":"s2","trial_type":"audio-button-response","trial_index":49,"time_elapsed":64557,"internal_node_id":"0.0-1.0-0.24"},{"rt":1695.2099999998609,"stimulus":"audio/actual/s6-blind-10bis_jenseigne_beaucoup.mp3","button_pressed":"0","test_part":"test","phrase":"10bis","condition":"blind","subject":"s6","trial_type":"audio-button-response","trial_index":51,"time_elapsed":66487,"internal_node_id":"0.0-1.0-0.25"},{"rt":1603.14500000095,"stimulus":"audio/actual/s7-imitation-10bis_jenseigne_beaucoup-2_cut1norm.mp3","button_pressed":"1","test_part":"test","phrase":"10bis","condition":"imitation","subject":"s7","trial_type":"audio-button-response","trial_index":53,"time_elapsed":68435,"internal_node_id":"0.0-1.0-0.26"},{"rt":2770.8800000000338,"stimulus":"audio/actual/s9-blind-10_jean_saigne_beaucoup.mp3","button_pressed":"0","test_part":"test","phrase":"10","condition":"blind","subject":"s9","trial_type":"audio-button-response","trial_index":55,"time_elapsed":71467,"internal_node_id":"0.0-1.0-0.27"},{"rt":977.1350000009988,"stimulus":"audio/actual/s7-guide-10bis_jenseigne_beaucoup.mp3","button_pressed":"1","test_part":"test","phrase":"10bis","condition":"guide","subject":"s7","trial_type":"audio-button-response","trial_index":57,"time_elapsed":72657,"internal_node_id":"0.0-1.0-0.28"},{"rt":1133.0999999991036,"stimulus":"audio/actual/s3-guide-10_jean_saigne_beaucoup.mp3","button_pressed":"0","test_part":"test","phrase":"10","condition":"guide","subject":"s3","trial_type":"audio-button-response","trial_index":59,"time_elapsed":74333,"internal_node_id":"0.0-1.0-0.29"},{"rt":1364.5500000002357,"stimulus":"audio/actual/s7-blind-10_jean_saigne_beaucoup.mp3","button_pressed":"0","test_part":"test","phrase":"10","condition":"blind","subject":"s7","trial_type":"audio-button-response","trial_index":61,"time_elapsed":75916,"internal_node_id":"0.0-1.0-0.30"},{"rt":1689.169999999649,"stimulus":"audio/actual/s4-blind-10bis_jenseigne_beaucoup.mp3","button_pressed":"1","test_part":"test","phrase":"10bis","condition":"blind","subject":"s4","trial_type":"audio-button-response","trial_index":63,"time_elapsed":77840,"internal_node_id":"0.0-1.0-0.31"},{"rt":1427.429999999731,"stimulus":"audio/actual/s1-blind-10bis_jenseigne_beaucoup.mp3","button_pressed":"0","test_part":"test","phrase":"10bis","condition":"blind","subject":"s1","trial_type":"audio-button-response","trial_index":65,"time_elapsed":79499,"internal_node_id":"0.0-1.0-0.32"},{"rt":1803.089999999429,"stimulus":"audio/actual/s2-lecture-10bis_jenseigne_beaucoup-6_cut1norm.mp3","button_pressed":"1","test_part":"test","phrase":"10bis","condition":"lecture","subject":"s2","trial_type":"audio-button-response","trial_index":67,"time_elapsed":81978,"internal_node_id":"0.0-1.0-0.33"},{"rt":2386.4250000005995,"stimulus":"audio/actual/s8-imitation-10bis_jenseigne_beaucoup-11_cut1norm.mp3","button_pressed":"0","test_part":"test","phrase":"10bis","condition":"imitation","subject":"s8","trial_type":"audio-button-response","trial_index":69,"time_elapsed":84684,"internal_node_id":"0.0-1.0-0.34"},{"rt":1693.7500000003638,"stimulus":"audio/actual/s2-imitation-10bis_jenseigne_beaucoup-5_cut1norm.mp3","button_pressed":"0","test_part":"test","phrase":"10bis","condition":"imitation","subject":"s2","trial_type":"audio-button-response","trial_index":71,"time_elapsed":86629,"internal_node_id":"0.0-1.0-0.35"},{"rt":1631.6700000006676,"stimulus":"audio/actual/s5-guide-10bis_jenseigne_beaucoup.mp3","button_pressed":"0","test_part":"test","phrase":"10bis","condition":"guide","subject":"s5","trial_type":"audio-button-response","trial_index":73,"time_elapsed":88534,"internal_node_id":"0.0-1.0-0.36"},{"rt":1396.179999999731,"stimulus":"audio/actual/s7-lecture-10bis_jenseigne_beaucoup-9_cut1norm.mp3","button_pressed":"0","test_part":"test","phrase":"10bis","condition":"lecture","subject":"s7","trial_type":"audio-button-response","trial_index":75,"time_elapsed":90139,"internal_node_id":"0.0-1.0-0.37"},{"rt":1363.9299999995274,"stimulus":"audio/actual/s4-imitation-10_jean_saigne_beaucoup-1_cut1norm.mp3","button_pressed":"0","test_part":"test","phrase":"10","condition":"imitation","subject":"s4","trial_type":"audio-button-response","trial_index":77,"time_elapsed":91730,"internal_node_id":"0.0-1.0-0.38"},{"rt":1397.4749999997584,"stimulus":"audio/actual/s9-lecture-10bis_jenseigne_beaucoup-2_cut1norm.mp3","button_pressed":"1","test_part":"test","phrase":"10bis","condition":"lecture","subject":"s9","trial_type":"audio-button-response","trial_index":79,"time_elapsed":93396,"internal_node_id":"0.0-1.0-0.39"},{"rt":2223.309999999401,"stimulus":"audio/actual/s8-lecture-10_jean_saigne_beaucoup-10_cut1norm.mp3","button_pressed":"0","test_part":"test","phrase":"10","condition":"lecture","subject":"s8","trial_type":"audio-button-response","trial_index":81,"time_elapsed":95894,"internal_node_id":"0.0-1.0-0.40"},{"rt":2823.4950000005483,"stimulus":"audio/actual/s9-guide-10bis_jenseigne_beaucoup.mp3","button_pressed":"0","test_part":"test","phrase":"10bis","condition":"guide","subject":"s9","trial_type":"audio-button-response","trial_index":83,"time_elapsed":99086,"internal_node_id":"0.0-1.0-0.41"},{"rt":3028.6899999991874,"stimulus":"audio/actual/s1-blind-10_jean_saigne_beaucoup.mp3","button_pressed":"0","test_part":"test","phrase":"10","condition":"blind","subject":"s1","trial_type":"audio-button-response","trial_index":85,"time_elapsed":102387,"internal_node_id":"0.0-1.0-0.42"},{"rt":1355.1749999987805,"stimulus":"audio/actual/s8-blind-10bis_jenseigne_beaucoup.mp3","button_pressed":"1","test_part":"test","phrase":"10bis","condition":"blind","subject":"s8","trial_type":"audio-button-response","trial_index":87,"time_elapsed":103962,"internal_node_id":"0.0-1.0-0.43"},{"rt":1531.329999999798,"stimulus":"audio/actual/s2-guide-10_jean_saigne_beaucoup.mp3","button_pressed":"0","test_part":"test","phrase":"10","condition":"guide","subject":"s2","trial_type":"audio-button-response","trial_index":89,"time_elapsed":106153,"internal_node_id":"0.0-1.0-0.44"},{"rt":1684.6450000011828,"stimulus":"audio/actual/s6-imitation-10_jean_saigne_beaucoup-5_cut1norm.mp3","button_pressed":"0","test_part":"test","phrase":"10","condition":"imitation","subject":"s6","trial_type":"audio-button-response","trial_index":91,"time_elapsed":108163,"internal_node_id":"0.0-1.0-0.45"},{"rt":1580.8749999996508,"stimulus":"audio/actual/s1-imitation-10_jean_saigne_beaucoup-11_cut1norm.mp3","button_pressed":"0","test_part":"test","phrase":"10","condition":"imitation","subject":"s1","trial_type":"audio-button-response","trial_index":93,"time_elapsed":109939,"internal_node_id":"0.0-1.0-0.46"},{"rt":1381.1850000001868,"stimulus":"audio/actual/s10-imitation-10bis_jenseigne_beaucoup-10_cut1norm.mp3","button_pressed":"1","test_part":"test","phrase":"10bis","condition":"imitation","subject":"s10","trial_type":"audio-button-response","trial_index":95,"time_elapsed":111587,"internal_node_id":"0.0-1.0-0.47"},{"rt":1211.8800000007468,"stimulus":"audio/actual/s1-imitation-10bis_jenseigne_beaucoup-10_cut1norm.mp3","button_pressed":"1","test_part":"test","phrase":"10bis","condition":"imitation","subject":"s1","trial_type":"audio-button-response","trial_index":97,"time_elapsed":113010,"internal_node_id":"0.0-1.0-0.48"},{"rt":3356.615000000602,"stimulus":"audio/actual/s6-blind-10_jean_saigne_beaucoup.mp3","button_pressed":"0","test_part":"test","phrase":"10","condition":"blind","subject":"s6","trial_type":"audio-button-response","trial_index":99,"time_elapsed":116562,"internal_node_id":"0.0-1.0-0.49"},{"rt":2038.1749999996828,"stimulus":"audio/actual/s9-guide-10_jean_saigne_beaucoup.mp3","button_pressed":"0","test_part":"test","phrase":"10","condition":"guide","subject":"s9","trial_type":"audio-button-response","trial_index":101,"time_elapsed":119132,"internal_node_id":"0.0-1.0-0.50"},{"rt":2213.370000001305,"stimulus":"audio/actual/s3-blind-10_jean_saigne_beaucoup.mp3","button_pressed":"0","test_part":"test","phrase":"10","condition":"blind","subject":"s3","trial_type":"audio-button-response","trial_index":103,"time_elapsed":121562,"internal_node_id":"0.0-1.0-0.51"},{"rt":2017.0949999992445,"stimulus":"audio/actual/s10-guide-10bis_jenseigne_beaucoup.mp3","button_pressed":"0","test_part":"test","phrase":"10bis","condition":"guide","subject":"s10","trial_type":"audio-button-response","trial_index":105,"time_elapsed":124214,"internal_node_id":"0.0-1.0-0.52"},{"rt":1577.659999999014,"stimulus":"audio/actual/s2-guide-10bis_jenseigne_beaucoup.mp3","button_pressed":"1","test_part":"test","phrase":"10bis","condition":"guide","subject":"s2","trial_type":"audio-button-response","trial_index":107,"time_elapsed":126055,"internal_node_id":"0.0-1.0-0.53"},{"rt":1452.9049999982817,"stimulus":"audio/actual/s3-imitation-10_jean_saigne_beaucoup-2_cut1norm.mp3","button_pressed":"0","test_part":"test","phrase":"10","condition":"imitation","subject":"s3","trial_type":"audio-button-response","trial_index":109,"time_elapsed":127722,"internal_node_id":"0.0-1.0-0.54"},{"rt":1383.4800000003888,"stimulus":"audio/actual/s6-guide-10bis_jenseigne_beaucoup.mp3","button_pressed":"1","test_part":"test","phrase":"10bis","condition":"guide","subject":"s6","trial_type":"audio-button-response","trial_index":111,"time_elapsed":129341,"internal_node_id":"0.0-1.0-0.55"},{"rt":814.940000000177,"stimulus":"audio/actual/s9-blind-10bis_jenseigne_beaucoup.mp3","button_pressed":"1","test_part":"test","phrase":"10bis","condition":"blind","subject":"s9","trial_type":"audio-button-response","trial_index":113,"time_elapsed":130380,"internal_node_id":"0.0-1.0-0.56"},{"rt":1514.4850000014994,"stimulus":"audio/actual/s4-lecture-10bis_jenseigne_beaucoup-0_cut1norm.mp3","button_pressed":"0","test_part":"test","phrase":"10bis","condition":"lecture","subject":"s4","trial_type":"audio-button-response","trial_index":115,"time_elapsed":132159,"internal_node_id":"0.0-1.0-0.57"},{"rt":1234.9800000010873,"stimulus":"audio/actual/s9-imitation-10bis_jenseigne_beaucoup-5_cut1norm.mp3","button_pressed":"1","test_part":"test","phrase":"10bis","condition":"imitation","subject":"s9","trial_type":"audio-button-response","trial_index":117,"time_elapsed":133656,"internal_node_id":"0.0-1.0-0.58"},{"rt":1316.370000000461,"stimulus":"audio/actual/s5-blind-10bis_jenseigne_beaucoup.mp3","button_pressed":"1","test_part":"test","phrase":"10bis","condition":"blind","subject":"s5","trial_type":"audio-button-response","trial_index":119,"time_elapsed":135201,"internal_node_id":"0.0-1.0-0.59"},{"rt":1715.009999999893,"stimulus":"audio/actual/s6-imitation-10bis_jenseigne_beaucoup-4_cut1norm.mp3","button_pressed":"1","test_part":"test","phrase":"10bis","condition":"imitation","subject":"s6","trial_type":"audio-button-response","trial_index":121,"time_elapsed":137120,"internal_node_id":"0.0-1.0-0.60"},{"rt":1799.1949999995995,"stimulus":"audio/actual/s5-imitation-10_jean_saigne_beaucoup-10_cut1norm.mp3","button_pressed":"0","test_part":"test","phrase":"10","condition":"imitation","subject":"s5","trial_type":"audio-button-response","trial_index":123,"time_elapsed":139428,"internal_node_id":"0.0-1.0-0.61"},{"rt":1773.6949999998324,"stimulus":"audio/actual/s9-lecture-10_jean_saigne_beaucoup-3_cut1norm.mp3","button_pressed":"0","test_part":"test","phrase":"10","condition":"lecture","subject":"s9","trial_type":"audio-button-response","trial_index":125,"time_elapsed":141674,"internal_node_id":"0.0-1.0-0.62"},{"rt":1302.7149999998219,"stimulus":"audio/actual/s10-lecture-10_jean_saigne_beaucoup-10_cut1norm.mp3","button_pressed":"1","test_part":"test","phrase":"10","condition":"lecture","subject":"s10","trial_type":"audio-button-response","trial_index":127,"time_elapsed":143467,"internal_node_id":"0.0-1.0-0.63"},{"rt":1166.1100000001315,"stimulus":"audio/actual/s6-lecture-10_jean_saigne_beaucoup-1_cut1norm.mp3","button_pressed":"0","test_part":"test","phrase":"10","condition":"lecture","subject":"s6","trial_type":"audio-button-response","trial_index":129,"time_elapsed":144858,"internal_node_id":"0.0-1.0-0.64"},{"rt":1679.1850000008708,"stimulus":"audio/actual/s3-lecture-10_jean_saigne_beaucoup-2_cut1norm.mp3","button_pressed":"0","test_part":"test","phrase":"10","condition":"lecture","subject":"s3","trial_type":"audio-button-response","trial_index":131,"time_elapsed":146787,"internal_node_id":"0.0-1.0-0.65"},{"rt":1351.1450000005425,"stimulus":"audio/actual/s7-lecture-10_jean_saigne_beaucoup-8_cut1norm.mp3","button_pressed":"1","test_part":"test","phrase":"10","condition":"lecture","subject":"s7","trial_type":"audio-button-response","trial_index":133,"time_elapsed":148387,"internal_node_id":"0.0-1.0-0.66"},{"rt":2590.9850000007427,"stimulus":"audio/actual/s3-guide-10bis_jenseigne_beaucoup.mp3","button_pressed":"1","test_part":"test","phrase":"10bis","condition":"guide","subject":"s3","trial_type":"audio-button-response","trial_index":135,"time_elapsed":151219,"internal_node_id":"0.0-1.0-0.67"},{"rt":2051.1699999988195,"stimulus":"audio/actual/s4-imitation-10bis_jenseigne_beaucoup-0_cut1norm.mp3","button_pressed":"1","test_part":"test","phrase":"10bis","condition":"imitation","subject":"s4","trial_type":"audio-button-response","trial_index":137,"time_elapsed":153479,"internal_node_id":"0.0-1.0-0.68"},{"rt":1207.044999999198,"stimulus":"audio/actual/s8-guide-10_jean_saigne_beaucoup.mp3","button_pressed":"0","test_part":"test","phrase":"10","condition":"guide","subject":"s8","trial_type":"audio-button-response","trial_index":139,"time_elapsed":155259,"internal_node_id":"0.0-1.0-0.69"},{"rt":1430.2200000001758,"stimulus":"audio/actual/s3-imitation-10bis_jenseigne_beaucoup-3_cut1norm.mp3","button_pressed":"1","test_part":"test","phrase":"10bis","condition":"imitation","subject":"s3","trial_type":"audio-button-response","trial_index":141,"time_elapsed":157410,"internal_node_id":"0.0-1.0-0.70"},{"rt":1283.1900000001187,"stimulus":"audio/actual/s4-lecture-10_jean_saigne_beaucoup-1_cut1norm.mp3","button_pressed":"0","test_part":"test","phrase":"10","condition":"lecture","subject":"s4","trial_type":"audio-button-response","trial_index":143,"time_elapsed":159151,"internal_node_id":"0.0-1.0-0.71"},{"rt":1279.0600000007544,"stimulus":"audio/actual/s3-blind-10bis_jenseigne_beaucoup.mp3","button_pressed":"1","test_part":"test","phrase":"10bis","condition":"blind","subject":"s3","trial_type":"audio-button-response","trial_index":145,"time_elapsed":161139,"internal_node_id":"0.0-1.0-0.72"},{"rt":1431.2100000006612,"stimulus":"audio/actual/s2-imitation-10_jean_saigne_beaucoup-4_cut1norm.mp3","button_pressed":"0","test_part":"test","phrase":"10","condition":"imitation","subject":"s2","trial_type":"audio-button-response","trial_index":147,"time_elapsed":162803,"internal_node_id":"0.0-1.0-0.73"},{"rt":1463.3100000009872,"stimulus":"audio/actual/s5-lecture-10_jean_saigne_beaucoup-5_cut1norm.mp3","button_pressed":"0","test_part":"test","phrase":"10","condition":"lecture","subject":"s5","trial_type":"audio-button-response","trial_index":149,"time_elapsed":164747,"internal_node_id":"0.0-1.0-0.74"},{"rt":1535.079999999638,"stimulus":"audio/actual/s1-lecture-10bis_jenseigne_beaucoup-3_cut1norm.mp3","button_pressed":"1","test_part":"test","phrase":"10bis","condition":"lecture","subject":"s1","trial_type":"audio-button-response","trial_index":151,"time_elapsed":166539,"internal_node_id":"0.0-1.0-0.75"},{"rt":1498.5900000010733,"stimulus":"audio/actual/s5-guide-10_jean_saigne_beaucoup.mp3","button_pressed":"0","test_part":"test","phrase":"10","condition":"guide","subject":"s5","trial_type":"audio-button-response","trial_index":153,"time_elapsed":168294,"internal_node_id":"0.0-1.0-0.76"},{"rt":2827.180000000226,"stimulus":"audio/actual/s2-lecture-10_jean_saigne_beaucoup-7_cut1norm.mp3","button_pressed":"0","test_part":"test","phrase":"10","condition":"lecture","subject":"s2","trial_type":"audio-button-response","trial_index":155,"time_elapsed":171390,"internal_node_id":"0.0-1.0-0.77"},{"rt":1831.8600000002189,"stimulus":"audio/actual/s6-lecture-10bis_jenseigne_beaucoup-0_cut1norm.mp3","button_pressed":"1","test_part":"test","phrase":"10bis","condition":"lecture","subject":"s6","trial_type":"audio-button-response","trial_index":157,"time_elapsed":174027,"internal_node_id":"0.0-1.0-0.78"},{"rt":3647.8099999986007,"stimulus":"audio/actual/s10-blind-10_jean_saigne_beaucoup.mp3","button_pressed":"1","test_part":"test","phrase":"10","condition":"blind","subject":"s10","trial_type":"audio-button-response","trial_index":159,"time_elapsed":177907,"internal_node_id":"0.0-1.0-0.79"}]