[{"rt":4077.0800000000236,"stimulus":"audio/actual/s2-blind-10bis_jenseigne_beaucoup.mp3","button_pressed":"2","test_part":"test","phrase":"10bis","condition":"blind","subject":"s2","trial_type":"audio-button-response","trial_index":1,"time_elapsed":23534,"internal_node_id":"0.0-1.0-0.0"},{"rt":10883.935000000063,"stimulus":"audio/actual/s2-blind-10bis_jenseigne_beaucoup.mp3","button_pressed":"1","test_part":"test","phrase":"10bis","condition":"blind","subject":"s2","trial_type":"audio-button-response","trial_index":2,"time_elapsed":34420,"internal_node_id":"0.0-1.0-1.0-0.0"},{"rt":4169.97000000003,"stimulus":"audio/actual/s8-guide-10_jean_saigne_beaucoup.mp3","button_pressed":"0","test_part":"test","phrase":"10","condition":"guide","subject":"s8","trial_type":"audio-button-response","trial_index":4,"time_elapsed":40084,"internal_node_id":"0.0-1.0-0.1"},{"rt":6189.885000000002,"stimulus":"audio/actual/s9-blind-10_jean_saigne_beaucoup.mp3","button_pressed":"2","test_part":"test","phrase":"10","condition":"blind","subject":"s9","trial_type":"audio-button-response","trial_index":6,"time_elapsed":47786,"internal_node_id":"0.0-1.0-0.2"},{"rt":3614.5050000000047,"stimulus":"audio/actual/s9-blind-10_jean_saigne_beaucoup.mp3","button_pressed":"0","test_part":"test","phrase":"10","condition":"blind","subject":"s9","trial_type":"audio-button-response","trial_index":7,"time_elapsed":51402,"internal_node_id":"0.0-1.0-1.2-0.2"},{"rt":4479.339999999982,"stimulus":"audio/actual/s1-lecture-10_jean_saigne_beaucoup-2_cut1norm.mp3","button_pressed":"1","test_part":"test","phrase":"10","condition":"lecture","subject":"s1","trial_type":"audio-button-response","trial_index":9,"time_elapsed":56828,"internal_node_id":"0.0-1.0-0.3"},{"rt":5812.339999999953,"stimulus":"audio/actual/s3-imitation-10_jean_saigne_beaucoup-2_cut1norm.mp3","button_pressed":"2","test_part":"test","phrase":"10","condition":"imitation","subject":"s3","trial_type":"audio-button-response","trial_index":11,"time_elapsed":63415,"internal_node_id":"0.0-1.0-0.4"},{"rt":3882.5249999999796,"stimulus":"audio/actual/s3-imitation-10_jean_saigne_beaucoup-2_cut1norm.mp3","button_pressed":"0","test_part":"test","phrase":"10","condition":"imitation","subject":"s3","trial_type":"audio-button-response","trial_index":12,"time_elapsed":67298,"internal_node_id":"0.0-1.0-1.4-0.4"},{"rt":7350.525000000067,"stimulus":"audio/actual/s10-lecture-10_jean_saigne_beaucoup-10_cut1norm.mp3","button_pressed":"2","test_part":"test","phrase":"10","condition":"lecture","subject":"s10","trial_type":"audio-button-response","trial_index":14,"time_elapsed":75580,"internal_node_id":"0.0-1.0-0.5"},{"rt":2284.644999999946,"stimulus":"audio/actual/s10-lecture-10_jean_saigne_beaucoup-10_cut1norm.mp3","button_pressed":"1","test_part":"test","phrase":"10","condition":"lecture","subject":"s10","trial_type":"audio-button-response","trial_index":15,"time_elapsed":77866,"internal_node_id":"0.0-1.0-1.5-0.5"},{"rt":5737.235000000059,"stimulus":"audio/actual/s6-lecture-10_jean_saigne_beaucoup-1_cut1norm.mp3","button_pressed":"0","test_part":"test","phrase":"10","condition":"lecture","subject":"s6","trial_type":"audio-button-response","trial_index":17,"time_elapsed":84546,"internal_node_id":"0.0-1.0-0.6"},{"rt":5848.929999999993,"stimulus":"audio/actual/s2-blind-10_jean_saigne_beaucoup.mp3","button_pressed":"0","test_part":"test","phrase":"10","condition":"blind","subject":"s2","trial_type":"audio-button-response","trial_index":19,"time_elapsed":91370,"internal_node_id":"0.0-1.0-0.7"},{"rt":6793.924999999945,"stimulus":"audio/actual/s10-guide-10_jean_saigne_beaucoup.mp3","button_pressed":"0","test_part":"test","phrase":"10","condition":"guide","subject":"s10","trial_type":"audio-button-response","trial_index":21,"time_elapsed":99080,"internal_node_id":"0.0-1.0-0.8"},{"rt":4644.829999999958,"stimulus":"audio/actual/s2-lecture-10_jean_saigne_beaucoup-7_cut1norm.mp3","button_pressed":"0","test_part":"test","phrase":"10","condition":"lecture","subject":"s2","trial_type":"audio-button-response","trial_index":23,"time_elapsed":104618,"internal_node_id":"0.0-1.0-0.9"},{"rt":2318.1999999999243,"stimulus":"audio/actual/s9-imitation-10bis_jenseigne_beaucoup-5_cut1norm.mp3","button_pressed":"1","test_part":"test","phrase":"10bis","condition":"imitation","subject":"s9","trial_type":"audio-button-response","trial_index":25,"time_elapsed":108190,"internal_node_id":"0.0-1.0-0.10"},{"rt":3854.4400000000605,"stimulus":"audio/actual/s2-lecture-10bis_jenseigne_beaucoup-6_cut1norm.mp3","button_pressed":"1","test_part":"test","phrase":"10bis","condition":"lecture","subject":"s2","trial_type":"audio-button-response","trial_index":27,"time_elapsed":114800,"internal_node_id":"0.0-1.0-0.11"},{"rt":4085.8550000000396,"stimulus":"audio/actual/s10-blind-10bis_jenseigne_beaucoup.mp3","button_pressed":"0","test_part":"test","phrase":"10bis","condition":"blind","subject":"s10","trial_type":"audio-button-response","trial_index":29,"time_elapsed":119900,"internal_node_id":"0.0-1.0-0.12"},{"rt":2189.6500000000233,"stimulus":"audio/actual/s7-lecture-10_jean_saigne_beaucoup-8_cut1norm.mp3","button_pressed":"0","test_part":"test","phrase":"10","condition":"lecture","subject":"s7","trial_type":"audio-button-response","trial_index":31,"time_elapsed":123384,"internal_node_id":"0.0-1.0-0.13"},{"rt":3446.079999999929,"stimulus":"audio/actual/s6-blind-10_jean_saigne_beaucoup.mp3","button_pressed":"0","test_part":"test","phrase":"10","condition":"blind","subject":"s6","trial_type":"audio-button-response","trial_index":33,"time_elapsed":128080,"internal_node_id":"0.0-1.0-0.14"},{"rt":5171.24000000002,"stimulus":"audio/actual/s4-imitation-10bis_jenseigne_beaucoup-0_cut1norm.mp3","button_pressed":"1","test_part":"test","phrase":"10bis","condition":"imitation","subject":"s4","trial_type":"audio-button-response","trial_index":35,"time_elapsed":134022,"internal_node_id":"0.0-1.0-0.15"},{"rt":9605.059999999998,"stimulus":"audio/actual/s7-blind-10bis_jenseigne_beaucoup.mp3","button_pressed":"0","test_part":"test","phrase":"10bis","condition":"blind","subject":"s7","trial_type":"audio-button-response","trial_index":37,"time_elapsed":144432,"internal_node_id":"0.0-1.0-0.16"},{"rt":4854.7249999999185,"stimulus":"audio/actual/s4-lecture-10bis_jenseigne_beaucoup-0_cut1norm.mp3","button_pressed":"0","test_part":"test","phrase":"10bis","condition":"lecture","subject":"s4","trial_type":"audio-button-response","trial_index":39,"time_elapsed":149966,"internal_node_id":"0.0-1.0-0.17"},{"rt":4298.225000000006,"stimulus":"audio/actual/s3-lecture-10bis_jenseigne_beaucoup-3_cut1norm.mp3","button_pressed":"0","test_part":"test","phrase":"10bis","condition":"lecture","subject":"s3","trial_type":"audio-button-response","trial_index":41,"time_elapsed":158055,"internal_node_id":"0.0-1.0-0.18"},{"rt":3539.6100000000442,"stimulus":"audio/actual/s9-lecture-10bis_jenseigne_beaucoup-2_cut1norm.mp3","button_pressed":"0","test_part":"test","phrase":"10bis","condition":"lecture","subject":"s9","trial_type":"audio-button-response","trial_index":43,"time_elapsed":162637,"internal_node_id":"0.0-1.0-0.19"},{"rt":3843.4799999999814,"stimulus":"audio/actual/s3-blind-10bis_jenseigne_beaucoup.mp3","button_pressed":"0","test_part":"test","phrase":"10bis","condition":"blind","subject":"s3","trial_type":"audio-button-response","trial_index":45,"time_elapsed":167245,"internal_node_id":"0.0-1.0-0.20"},{"rt":5585.320000000007,"stimulus":"audio/actual/s6-guide-10_jean_saigne_beaucoup.mp3","button_pressed":"0","test_part":"test","phrase":"10","condition":"guide","subject":"s6","trial_type":"audio-button-response","trial_index":47,"time_elapsed":173513,"internal_node_id":"0.0-1.0-0.21"},{"rt":4679.520000000019,"stimulus":"audio/actual/s10-imitation-10_jean_saigne_beaucoup-11_cut1norm.mp3","button_pressed":"0","test_part":"test","phrase":"10","condition":"imitation","subject":"s10","trial_type":"audio-button-response","trial_index":49,"time_elapsed":179519,"internal_node_id":"0.0-1.0-0.22"},{"rt":3931.1299999999464,"stimulus":"audio/actual/s6-lecture-10bis_jenseigne_beaucoup-0_cut1norm.mp3","button_pressed":"1","test_part":"test","phrase":"10bis","condition":"lecture","subject":"s6","trial_type":"audio-button-response","trial_index":51,"time_elapsed":185137,"internal_node_id":"0.0-1.0-0.23"},{"rt":3136.4599999999336,"stimulus":"audio/actual/s8-blind-10_jean_saigne_beaucoup.mp3","button_pressed":"0","test_part":"test","phrase":"10","condition":"blind","subject":"s8","trial_type":"audio-button-response","trial_index":53,"time_elapsed":189013,"internal_node_id":"0.0-1.0-0.24"},{"rt":2786.035000000091,"stimulus":"audio/actual/s7-guide-10bis_jenseigne_beaucoup.mp3","button_pressed":"1","test_part":"test","phrase":"10bis","condition":"guide","subject":"s7","trial_type":"audio-button-response","trial_index":55,"time_elapsed":192533,"internal_node_id":"0.0-1.0-0.25"},{"rt":2526.304999999964,"stimulus":"audio/actual/s9-imitation-10_jean_saigne_beaucoup-4_cut1norm.mp3","button_pressed":"0","test_part":"test","phrase":"10","condition":"imitation","subject":"s9","trial_type":"audio-button-response","trial_index":57,"time_elapsed":195823,"internal_node_id":"0.0-1.0-0.26"},{"rt":2661.335000000021,"stimulus":"audio/actual/s3-lecture-10_jean_saigne_beaucoup-2_cut1norm.mp3","button_pressed":"0","test_part":"test","phrase":"10","condition":"lecture","subject":"s3","trial_type":"audio-button-response","trial_index":59,"time_elapsed":199247,"internal_node_id":"0.0-1.0-0.27"},{"rt":2524.585000000021,"stimulus":"audio/actual/s1-guide-10_jean_saigne_beaucoup.mp3","button_pressed":"0","test_part":"test","phrase":"10","condition":"guide","subject":"s1","trial_type":"audio-button-response","trial_index":61,"time_elapsed":202469,"internal_node_id":"0.0-1.0-0.28"},{"rt":4768.690000000002,"stimulus":"audio/actual/s3-guide-10_jean_saigne_beaucoup.mp3","button_pressed":"0","test_part":"test","phrase":"10","condition":"guide","subject":"s3","trial_type":"audio-button-response","trial_index":63,"time_elapsed":207773,"internal_node_id":"0.0-1.0-0.29"},{"rt":6788.585000000021,"stimulus":"audio/actual/s4-blind-10_jean_saigne_beaucoup.mp3","button_pressed":"1","test_part":"test","phrase":"10","condition":"blind","subject":"s4","trial_type":"audio-button-response","trial_index":65,"time_elapsed":215189,"internal_node_id":"0.0-1.0-0.30"},{"rt":2955.57500000007,"stimulus":"audio/actual/s2-guide-10bis_jenseigne_beaucoup.mp3","button_pressed":"1","test_part":"test","phrase":"10bis","condition":"guide","subject":"s2","trial_type":"audio-button-response","trial_index":67,"time_elapsed":218887,"internal_node_id":"0.0-1.0-0.31"},{"rt":2452.9049999999697,"stimulus":"audio/actual/s5-imitation-10bis_jenseigne_beaucoup-11_cut1norm.mp3","button_pressed":"1","test_part":"test","phrase":"10bis","condition":"imitation","subject":"s5","trial_type":"audio-button-response","trial_index":69,"time_elapsed":221965,"internal_node_id":"0.0-1.0-0.32"},{"rt":7572.229999999981,"stimulus":"audio/actual/s10-blind-10_jean_saigne_beaucoup.mp3","button_pressed":"1","test_part":"test","phrase":"10","condition":"blind","subject":"s10","trial_type":"audio-button-response","trial_index":71,"time_elapsed":230003,"internal_node_id":"0.0-1.0-0.33"},{"rt":3330.929999999964,"stimulus":"audio/actual/s8-lecture-10bis_jenseigne_beaucoup-11_cut1norm.mp3","button_pressed":"0","test_part":"test","phrase":"10bis","condition":"lecture","subject":"s8","trial_type":"audio-button-response","trial_index":73,"time_elapsed":233995,"internal_node_id":"0.0-1.0-0.34"},{"rt":6047.38499999998,"stimulus":"audio/actual/s5-blind-10_jean_saigne_beaucoup.mp3","button_pressed":"1","test_part":"test","phrase":"10","condition":"blind","subject":"s5","trial_type":"audio-button-response","trial_index":75,"time_elapsed":240811,"internal_node_id":"0.0-1.0-0.35"},{"rt":3573.155000000057,"stimulus":"audio/actual/s9-guide-10_jean_saigne_beaucoup.mp3","button_pressed":"0","test_part":"test","phrase":"10","condition":"guide","subject":"s9","trial_type":"audio-button-response","trial_index":77,"time_elapsed":244999,"internal_node_id":"0.0-1.0-0.36"},{"rt":4209.38499999998,"stimulus":"audio/actual/s5-lecture-10bis_jenseigne_beaucoup-4_cut1norm.mp3","button_pressed":"2","test_part":"test","phrase":"10bis","condition":"lecture","subject":"s5","trial_type":"audio-button-response","trial_index":79,"time_elapsed":250040,"internal_node_id":"0.0-1.0-0.37"},{"rt":6966.155000000057,"stimulus":"audio/actual/s5-lecture-10bis_jenseigne_beaucoup-4_cut1norm.mp3","button_pressed":"1","test_part":"test","phrase":"10bis","condition":"lecture","subject":"s5","trial_type":"audio-button-response","trial_index":80,"time_elapsed":257007,"internal_node_id":"0.0-1.0-1.37-0.37"},{"rt":2170.535000000091,"stimulus":"audio/actual/s8-blind-10bis_jenseigne_beaucoup.mp3","button_pressed":"1","test_part":"test","phrase":"10bis","condition":"blind","subject":"s8","trial_type":"audio-button-response","trial_index":82,"time_elapsed":259995,"internal_node_id":"0.0-1.0-0.38"},{"rt":3211.875000000058,"stimulus":"audio/actual/s4-imitation-10_jean_saigne_beaucoup-1_cut1norm.mp3","button_pressed":"0","test_part":"test","phrase":"10","condition":"imitation","subject":"s4","trial_type":"audio-button-response","trial_index":84,"time_elapsed":263761,"internal_node_id":"0.0-1.0-0.39"},{"rt":4210.055000000051,"stimulus":"audio/actual/s2-imitation-10bis_jenseigne_beaucoup-5_cut1norm.mp3","button_pressed":"1","test_part":"test","phrase":"10bis","condition":"imitation","subject":"s2","trial_type":"audio-button-response","trial_index":86,"time_elapsed":269283,"internal_node_id":"0.0-1.0-0.40"},{"rt":5244.950000000012,"stimulus":"audio/actual/s1-blind-10_jean_saigne_beaucoup.mp3","button_pressed":"0","test_part":"test","phrase":"10","condition":"blind","subject":"s1","trial_type":"audio-button-response","trial_index":88,"time_elapsed":275139,"internal_node_id":"0.0-1.0-0.41"},{"rt":3533.0999999999767,"stimulus":"audio/actual/s9-blind-10bis_jenseigne_beaucoup.mp3","button_pressed":"0","test_part":"test","phrase":"10bis","condition":"blind","subject":"s9","trial_type":"audio-button-response","trial_index":90,"time_elapsed":279473,"internal_node_id":"0.0-1.0-0.42"},{"rt":3260.865000000049,"stimulus":"audio/actual/s6-blind-10bis_jenseigne_beaucoup.mp3","button_pressed":"0","test_part":"test","phrase":"10bis","condition":"blind","subject":"s6","trial_type":"audio-button-response","trial_index":92,"time_elapsed":283569,"internal_node_id":"0.0-1.0-0.43"},{"rt":2675.644999999902,"stimulus":"audio/actual/s3-blind-10_jean_saigne_beaucoup.mp3","button_pressed":"0","test_part":"test","phrase":"10","condition":"blind","subject":"s3","trial_type":"audio-button-response","trial_index":94,"time_elapsed":287047,"internal_node_id":"0.0-1.0-0.44"},{"rt":5148.289999999979,"stimulus":"audio/actual/s7-guide-10_jean_saigne_beaucoup.mp3","button_pressed":"0","test_part":"test","phrase":"10","condition":"guide","subject":"s7","trial_type":"audio-button-response","trial_index":96,"time_elapsed":292799,"internal_node_id":"0.0-1.0-0.45"},{"rt":1410.2050000000163,"stimulus":"audio/actual/s8-guide-10bis_jenseigne_beaucoup.mp3","button_pressed":"1","test_part":"test","phrase":"10bis","condition":"guide","subject":"s8","trial_type":"audio-button-response","trial_index":98,"time_elapsed":294955,"internal_node_id":"0.0-1.0-0.46"},{"rt":3275.649999999907,"stimulus":"audio/actual/s7-blind-10_jean_saigne_beaucoup.mp3","button_pressed":"0","test_part":"test","phrase":"10","condition":"blind","subject":"s7","trial_type":"audio-button-response","trial_index":100,"time_elapsed":298665,"internal_node_id":"0.0-1.0-0.47"},{"rt":1722.6450000000768,"stimulus":"audio/actual/s8-imitation-10bis_jenseigne_beaucoup-11_cut1norm.mp3","button_pressed":"1","test_part":"test","phrase":"10bis","condition":"imitation","subject":"s8","trial_type":"audio-button-response","trial_index":102,"time_elapsed":301001,"internal_node_id":"0.0-1.0-0.48"},{"rt":3424.3450000000303,"stimulus":"audio/actual/s4-lecture-10_jean_saigne_beaucoup-1_cut1norm.mp3","button_pressed":"0","test_part":"test","phrase":"10","condition":"lecture","subject":"s4","trial_type":"audio-button-response","trial_index":104,"time_elapsed":304923,"internal_node_id":"0.0-1.0-0.49"},{"rt":1784.329999999958,"stimulus":"audio/actual/s3-imitation-10bis_jenseigne_beaucoup-3_cut1norm.mp3","button_pressed":"1","test_part":"test","phrase":"10bis","condition":"imitation","subject":"s3","trial_type":"audio-button-response","trial_index":106,"time_elapsed":307361,"internal_node_id":"0.0-1.0-0.50"},{"rt":2899.9550000000163,"stimulus":"audio/actual/s8-imitation-10_jean_saigne_beaucoup-10_cut1norm.mp3","button_pressed":"0","test_part":"test","phrase":"10","condition":"imitation","subject":"s8","trial_type":"audio-button-response","trial_index":108,"time_elapsed":311127,"internal_node_id":"0.0-1.0-0.51"},{"rt":3813.530000000028,"stimulus":"audio/actual/s10-imitation-10bis_jenseigne_beaucoup-10_cut1norm.mp3","button_pressed":"1","test_part":"test","phrase":"10bis","condition":"imitation","subject":"s10","trial_type":"audio-button-response","trial_index":110,"time_elapsed":316045,"internal_node_id":"0.0-1.0-0.52"},{"rt":3461.194999999949,"stimulus":"audio/actual/s2-guide-10_jean_saigne_beaucoup.mp3","button_pressed":"0","test_part":"test","phrase":"10","condition":"guide","subject":"s2","trial_type":"audio-button-response","trial_index":112,"time_elapsed":320637,"internal_node_id":"0.0-1.0-0.53"},{"rt":4909.824999999953,"stimulus":"audio/actual/s1-guide-10bis_jenseigne_beaucoup.mp3","button_pressed":"1","test_part":"test","phrase":"10bis","condition":"guide","subject":"s1","trial_type":"audio-button-response","trial_index":114,"time_elapsed":326203,"internal_node_id":"0.0-1.0-0.54"},{"rt":2726.530000000028,"stimulus":"audio/actual/s5-guide-10bis_jenseigne_beaucoup.mp3","button_pressed":"1","test_part":"test","phrase":"10bis","condition":"guide","subject":"s5","trial_type":"audio-button-response","trial_index":116,"time_elapsed":329519,"internal_node_id":"0.0-1.0-0.55"},{"rt":3294.2249999999767,"stimulus":"audio/actual/s4-guide-10bis_jenseigne_beaucoup.mp3","button_pressed":"1","test_part":"test","phrase":"10bis","condition":"guide","subject":"s4","trial_type":"audio-button-response","trial_index":118,"time_elapsed":333793,"internal_node_id":"0.0-1.0-0.56"},{"rt":1769.6350000000093,"stimulus":"audio/actual/s1-imitation-10_jean_saigne_beaucoup-11_cut1norm.mp3","button_pressed":"0","test_part":"test","phrase":"10","condition":"imitation","subject":"s1","trial_type":"audio-button-response","trial_index":120,"time_elapsed":336531,"internal_node_id":"0.0-1.0-0.57"},{"rt":2323.6500000000233,"stimulus":"audio/actual/s5-imitation-10_jean_saigne_beaucoup-10_cut1norm.mp3","button_pressed":"0","test_part":"test","phrase":"10","condition":"imitation","subject":"s5","trial_type":"audio-button-response","trial_index":122,"time_elapsed":339637,"internal_node_id":"0.0-1.0-0.58"},{"rt":3314.179999999935,"stimulus":"audio/actual/s7-imitation-10bis_jenseigne_beaucoup-2_cut1norm.mp3","button_pressed":"1","test_part":"test","phrase":"10bis","condition":"imitation","subject":"s7","trial_type":"audio-button-response","trial_index":124,"time_elapsed":343703,"internal_node_id":"0.0-1.0-0.59"},{"rt":5092.119999999995,"stimulus":"audio/actual/s1-imitation-10bis_jenseigne_beaucoup-10_cut1norm.mp3","button_pressed":"1","test_part":"test","phrase":"10bis","condition":"imitation","subject":"s1","trial_type":"audio-button-response","trial_index":126,"time_elapsed":349507,"internal_node_id":"0.0-1.0-0.60"},{"rt":4377.420000000042,"stimulus":"audio/actual/s5-lecture-10_jean_saigne_beaucoup-5_cut1norm.mp3","button_pressed":"0","test_part":"test","phrase":"10","condition":"lecture","subject":"s5","trial_type":"audio-button-response","trial_index":128,"time_elapsed":354417,"internal_node_id":"0.0-1.0-0.61"},{"rt":3323.9949999999953,"stimulus":"audio/actual/s6-imitation-10bis_jenseigne_beaucoup-4_cut1norm.mp3","button_pressed":"0","test_part":"test","phrase":"10bis","condition":"imitation","subject":"s6","trial_type":"audio-button-response","trial_index":130,"time_elapsed":358707,"internal_node_id":"0.0-1.0-0.62"},{"rt":2940.005000000063,"stimulus":"audio/actual/s8-lecture-10_jean_saigne_beaucoup-10_cut1norm.mp3","button_pressed":"0","test_part":"test","phrase":"10","condition":"lecture","subject":"s8","trial_type":"audio-button-response","trial_index":132,"time_elapsed":362929,"internal_node_id":"0.0-1.0-0.63"},{"rt":2408.9049999999697,"stimulus":"audio/actual/s7-imitation-10_jean_saigne_beaucoup-3_cut1norm.mp3","button_pressed":"0","test_part":"test","phrase":"10","condition":"imitation","subject":"s7","trial_type":"audio-button-response","trial_index":134,"time_elapsed":366049,"internal_node_id":"0.0-1.0-0.64"},{"rt":8069.119999999995,"stimulus":"audio/actual/s10-guide-10bis_jenseigne_beaucoup.mp3","button_pressed":"1","test_part":"test","phrase":"10bis","condition":"guide","subject":"s10","trial_type":"audio-button-response","trial_index":136,"time_elapsed":374875,"internal_node_id":"0.0-1.0-0.65"},{"rt":6174.874999999942,"stimulus":"audio/actual/s6-guide-10bis_jenseigne_beaucoup.mp3","button_pressed":"2","test_part":"test","phrase":"10bis","condition":"guide","subject":"s6","trial_type":"audio-button-response","trial_index":138,"time_elapsed":381931,"internal_node_id":"0.0-1.0-0.66"},{"rt":2738.6650000000955,"stimulus":"audio/actual/s6-guide-10bis_jenseigne_beaucoup.mp3","button_pressed":"1","test_part":"test","phrase":"10bis","condition":"guide","subject":"s6","trial_type":"audio-button-response","trial_index":139,"time_elapsed":384671,"internal_node_id":"0.0-1.0-1.66-0.66"},{"rt":3804.6149999999907,"stimulus":"audio/actual/s2-imitation-10_jean_saigne_beaucoup-4_cut1norm.mp3","button_pressed":"0","test_part":"test","phrase":"10","condition":"imitation","subject":"s2","trial_type":"audio-button-response","trial_index":141,"time_elapsed":389235,"internal_node_id":"0.0-1.0-0.67"},{"rt":3664.0499999999884,"stimulus":"audio/actual/s5-guide-10_jean_saigne_beaucoup.mp3","button_pressed":"2","test_part":"test","phrase":"10","condition":"guide","subject":"s5","trial_type":"audio-button-response","trial_index":143,"time_elapsed":393487,"internal_node_id":"0.0-1.0-0.68"},{"rt":3483.0849999999627,"stimulus":"audio/actual/s5-guide-10_jean_saigne_beaucoup.mp3","button_pressed":"0","test_part":"test","phrase":"10","condition":"guide","subject":"s5","trial_type":"audio-button-response","trial_index":144,"time_elapsed":396971,"internal_node_id":"0.0-1.0-1.68-0.68"},{"rt":2905.6050000000396,"stimulus":"audio/actual/s6-imitation-10_jean_saigne_beaucoup-5_cut1norm.mp3","button_pressed":"0","test_part":"test","phrase":"10","condition":"imitation","subject":"s6","trial_type":"audio-button-response","trial_index":146,"time_elapsed":400876,"internal_node_id":"0.0-1.0-0.69"},{"rt":3590.149999999965,"stimulus":"audio/actual/s3-guide-10bis_jenseigne_beaucoup.mp3","button_pressed":"1","test_part":"test","phrase":"10bis","condition":"guide","subject":"s3","trial_type":"audio-button-response","trial_index":148,"time_elapsed":405181,"internal_node_id":"0.0-1.0-0.70"},{"rt":5906.804999999993,"stimulus":"audio/actual/s4-guide-10_jean_saigne_beaucoup.mp3","button_pressed":"2","test_part":"test","phrase":"10","condition":"guide","subject":"s4","trial_type":"audio-button-response","trial_index":150,"time_elapsed":412129,"internal_node_id":"0.0-1.0-0.71"},{"rt":6540.714999999967,"stimulus":"audio/actual/s4-guide-10_jean_saigne_beaucoup.mp3","button_pressed":"1","test_part":"test","phrase":"10","condition":"guide","subject":"s4","trial_type":"audio-button-response","trial_index":151,"time_elapsed":418671,"internal_node_id":"0.0-1.0-1.71-0.71"},{"rt":1449.295000000042,"stimulus":"audio/actual/s7-lecture-10bis_jenseigne_beaucoup-9_cut1norm.mp3","button_pressed":"0","test_part":"test","phrase":"10bis","condition":"lecture","subject":"s7","trial_type":"audio-button-response","trial_index":153,"time_elapsed":421000,"internal_node_id":"0.0-1.0-0.72"},{"rt":4456.6149999999325,"stimulus":"audio/actual/s1-blind-10bis_jenseigne_beaucoup.mp3","button_pressed":"1","test_part":"test","phrase":"10bis","condition":"blind","subject":"s1","trial_type":"audio-button-response","trial_index":155,"time_elapsed":427384,"internal_node_id":"0.0-1.0-0.73"},{"rt":4649.369999999937,"stimulus":"audio/actual/s4-blind-10bis_jenseigne_beaucoup.mp3","button_pressed":"2","test_part":"test","phrase":"10bis","condition":"blind","subject":"s4","trial_type":"audio-button-response","trial_index":157,"time_elapsed":432826,"internal_node_id":"0.0-1.0-0.74"},{"rt":5032.52999999997,"stimulus":"audio/actual/s4-blind-10bis_jenseigne_beaucoup.mp3","button_pressed":"1","test_part":"test","phrase":"10bis","condition":"blind","subject":"s4","trial_type":"audio-button-response","trial_index":158,"time_elapsed":437860,"internal_node_id":"0.0-1.0-1.74-0.74"},{"rt":4188.744999999937,"stimulus":"audio/actual/s1-lecture-10bis_jenseigne_beaucoup-3_cut1norm.mp3","button_pressed":"0","test_part":"test","phrase":"10bis","condition":"lecture","subject":"s1","trial_type":"audio-button-response","trial_index":160,"time_elapsed":442713,"internal_node_id":"0.0-1.0-0.75"},{"rt":3108.604999999923,"stimulus":"audio/actual/s9-lecture-10_jean_saigne_beaucoup-3_cut1norm.mp3","button_pressed":"0","test_part":"test","phrase":"10","condition":"lecture","subject":"s9","trial_type":"audio-button-response","trial_index":162,"time_elapsed":446524,"internal_node_id":"0.0-1.0-0.76"},{"rt":3582.285000000149,"stimulus":"audio/actual/s10-lecture-10bis_jenseigne_beaucoup-11_cut1norm.mp3","button_pressed":"1","test_part":"test","phrase":"10bis","condition":"lecture","subject":"s10","trial_type":"audio-button-response","trial_index":164,"time_elapsed":451020,"internal_node_id":"0.0-1.0-0.77"},{"rt":5100.724999999977,"stimulus":"audio/actual/s9-guide-10bis_jenseigne_beaucoup.mp3","button_pressed":"0","test_part":"test","phrase":"10bis","condition":"guide","subject":"s9","trial_type":"audio-button-response","trial_index":166,"time_elapsed":456812,"internal_node_id":"0.0-1.0-0.78"},{"rt":3197.5950000000885,"stimulus":"audio/actual/s5-blind-10bis_jenseigne_beaucoup.mp3","button_pressed":"1","test_part":"test","phrase":"10bis","condition":"blind","subject":"s5","trial_type":"audio-button-response","trial_index":168,"time_elapsed":460657,"internal_node_id":"0.0-1.0-0.79"}]