[{"rt":23868.25499999395,"stimulus":"audio/actual/s8-lecture-10bis_jenseigne_beaucoup-11_cut1norm.mp3","button_pressed":"2","test_part":"test","phrase":"10bis","condition":"lecture","subject":"s8","trial_type":"audio-button-response","trial_index":1,"time_elapsed":27861,"internal_node_id":"0.0-1.0-0.0"},{"rt":12367.369999999937,"stimulus":"audio/actual/s8-lecture-10bis_jenseigne_beaucoup-11_cut1norm.mp3","button_pressed":"1","test_part":"test","phrase":"10bis","condition":"lecture","subject":"s8","trial_type":"audio-button-response","trial_index":2,"time_elapsed":40232,"internal_node_id":"0.0-1.0-1.0-0.0"},{"rt":6908.380000000761,"stimulus":"audio/actual/s5-lecture-10bis_jenseigne_beaucoup-4_cut1norm.mp3","button_pressed":"2","test_part":"test","phrase":"10bis","condition":"lecture","subject":"s5","trial_type":"audio-button-response","trial_index":4,"time_elapsed":48514,"internal_node_id":"0.0-1.0-0.1"},{"rt":7779.365000002144,"stimulus":"audio/actual/s5-lecture-10bis_jenseigne_beaucoup-4_cut1norm.mp3","button_pressed":"1","test_part":"test","phrase":"10bis","condition":"lecture","subject":"s5","trial_type":"audio-button-response","trial_index":5,"time_elapsed":56297,"internal_node_id":"0.0-1.0-1.1-0.1"},{"rt":5145.974999999453,"stimulus":"audio/actual/s9-blind-10bis_jenseigne_beaucoup.mp3","button_pressed":"2","test_part":"test","phrase":"10bis","condition":"blind","subject":"s9","trial_type":"audio-button-response","trial_index":7,"time_elapsed":62479,"internal_node_id":"0.0-1.0-0.2"},{"rt":2585.0399999981164,"stimulus":"audio/actual/s9-blind-10bis_jenseigne_beaucoup.mp3","button_pressed":"0","test_part":"test","phrase":"10bis","condition":"blind","subject":"s9","trial_type":"audio-button-response","trial_index":8,"time_elapsed":65067,"internal_node_id":"0.0-1.0-1.2-0.2"},{"rt":8271.344999993744,"stimulus":"audio/actual/s8-blind-10bis_jenseigne_beaucoup.mp3","button_pressed":"2","test_part":"test","phrase":"10bis","condition":"blind","subject":"s8","trial_type":"audio-button-response","trial_index":10,"time_elapsed":74287,"internal_node_id":"0.0-1.0-0.3"},{"rt":4607.579999996233,"stimulus":"audio/actual/s8-blind-10bis_jenseigne_beaucoup.mp3","button_pressed":"1","test_part":"test","phrase":"10bis","condition":"blind","subject":"s8","trial_type":"audio-button-response","trial_index":11,"time_elapsed":78898,"internal_node_id":"0.0-1.0-1.3-0.3"},{"rt":4121.449999998731,"stimulus":"audio/actual/s5-blind-10bis_jenseigne_beaucoup.mp3","button_pressed":"2","test_part":"test","phrase":"10bis","condition":"blind","subject":"s5","trial_type":"audio-button-response","trial_index":13,"time_elapsed":83771,"internal_node_id":"0.0-1.0-0.4"},{"rt":1564.9349999948754,"stimulus":"audio/actual/s5-blind-10bis_jenseigne_beaucoup.mp3","button_pressed":"1","test_part":"test","phrase":"10bis","condition":"blind","subject":"s5","trial_type":"audio-button-response","trial_index":14,"time_elapsed":85339,"internal_node_id":"0.0-1.0-1.4-0.4"},{"rt":5859.2700000008335,"stimulus":"audio/actual/s1-lecture-10_jean_saigne_beaucoup-2_cut1norm.mp3","button_pressed":"2","test_part":"test","phrase":"10","condition":"lecture","subject":"s1","trial_type":"audio-button-response","trial_index":16,"time_elapsed":92028,"internal_node_id":"0.0-1.0-0.5"},{"rt":2525.4750000021886,"stimulus":"audio/actual/s1-lecture-10_jean_saigne_beaucoup-2_cut1norm.mp3","button_pressed":"0","test_part":"test","phrase":"10","condition":"lecture","subject":"s1","trial_type":"audio-button-response","trial_index":17,"time_elapsed":94557,"internal_node_id":"0.0-1.0-1.5-0.5"},{"rt":4892.635000003793,"stimulus":"audio/actual/s7-lecture-10bis_jenseigne_beaucoup-9_cut1norm.mp3","button_pressed":"2","test_part":"test","phrase":"10bis","condition":"lecture","subject":"s7","trial_type":"audio-button-response","trial_index":19,"time_elapsed":100515,"internal_node_id":"0.0-1.0-0.6"},{"rt":8834.170000001905,"stimulus":"audio/actual/s7-lecture-10bis_jenseigne_beaucoup-9_cut1norm.mp3","button_pressed":"0","test_part":"test","phrase":"10bis","condition":"lecture","subject":"s7","trial_type":"audio-button-response","trial_index":20,"time_elapsed":109351,"internal_node_id":"0.0-1.0-1.6-0.6"},{"rt":5261.449999998149,"stimulus":"audio/actual/s2-guide-10_jean_saigne_beaucoup.mp3","button_pressed":"2","test_part":"test","phrase":"10","condition":"guide","subject":"s2","trial_type":"audio-button-response","trial_index":22,"time_elapsed":115307,"internal_node_id":"0.0-1.0-0.7"},{"rt":3248.5349999988102,"stimulus":"audio/actual/s2-guide-10_jean_saigne_beaucoup.mp3","button_pressed":"0","test_part":"test","phrase":"10","condition":"guide","subject":"s2","trial_type":"audio-button-response","trial_index":23,"time_elapsed":118559,"internal_node_id":"0.0-1.0-1.7-0.7"},{"rt":4346.445000002859,"stimulus":"audio/actual/s7-imitation-10bis_jenseigne_beaucoup-2_cut1norm.mp3","button_pressed":"2","test_part":"test","phrase":"10bis","condition":"imitation","subject":"s7","trial_type":"audio-button-response","trial_index":25,"time_elapsed":123621,"internal_node_id":"0.0-1.0-0.8"},{"rt":2104.715000001306,"stimulus":"audio/actual/s7-imitation-10bis_jenseigne_beaucoup-2_cut1norm.mp3","button_pressed":"1","test_part":"test","phrase":"10bis","condition":"imitation","subject":"s7","trial_type":"audio-button-response","trial_index":26,"time_elapsed":125729,"internal_node_id":"0.0-1.0-1.8-0.8"},{"rt":12629.984999999579,"stimulus":"audio/actual/s4-blind-10_jean_saigne_beaucoup.mp3","button_pressed":"0","test_part":"test","phrase":"10","condition":"blind","subject":"s4","trial_type":"audio-button-response","trial_index":28,"time_elapsed":139053,"internal_node_id":"0.0-1.0-0.9"},{"rt":6002.459999996063,"stimulus":"audio/actual/s3-imitation-10_jean_saigne_beaucoup-2_cut1norm.mp3","button_pressed":"0","test_part":"test","phrase":"10","condition":"imitation","subject":"s3","trial_type":"audio-button-response","trial_index":30,"time_elapsed":145921,"internal_node_id":"0.0-1.0-0.10"},{"rt":5643.224999999802,"stimulus":"audio/actual/s4-guide-10_jean_saigne_beaucoup.mp3","button_pressed":"1","test_part":"test","phrase":"10","condition":"guide","subject":"s4","trial_type":"audio-button-response","trial_index":32,"time_elapsed":152474,"internal_node_id":"0.0-1.0-0.11"},{"rt":5937.344999998459,"stimulus":"audio/actual/s3-blind-10bis_jenseigne_beaucoup.mp3","button_pressed":"1","test_part":"test","phrase":"10bis","condition":"blind","subject":"s3","trial_type":"audio-button-response","trial_index":34,"time_elapsed":159183,"internal_node_id":"0.0-1.0-0.12"},{"rt":6889.864999997371,"stimulus":"audio/actual/s4-lecture-10_jean_saigne_beaucoup-1_cut1norm.mp3","button_pressed":"2","test_part":"test","phrase":"10","condition":"lecture","subject":"s4","trial_type":"audio-button-response","trial_index":36,"time_elapsed":167256,"internal_node_id":"0.0-1.0-0.13"},{"rt":2451.759999996284,"stimulus":"audio/actual/s4-lecture-10_jean_saigne_beaucoup-1_cut1norm.mp3","button_pressed":"0","test_part":"test","phrase":"10","condition":"lecture","subject":"s4","trial_type":"audio-button-response","trial_index":37,"time_elapsed":169711,"internal_node_id":"0.0-1.0-1.13-0.13"},{"rt":5465.094999999565,"stimulus":"audio/actual/s8-guide-10_jean_saigne_beaucoup.mp3","button_pressed":"2","test_part":"test","phrase":"10","condition":"guide","subject":"s8","trial_type":"audio-button-response","trial_index":39,"time_elapsed":175932,"internal_node_id":"0.0-1.0-0.14"},{"rt":2064.6149999956833,"stimulus":"audio/actual/s8-guide-10_jean_saigne_beaucoup.mp3","button_pressed":"0","test_part":"test","phrase":"10","condition":"guide","subject":"s8","trial_type":"audio-button-response","trial_index":40,"time_elapsed":177999,"internal_node_id":"0.0-1.0-1.14-0.14"},{"rt":7346.940000003087,"stimulus":"audio/actual/s10-guide-10_jean_saigne_beaucoup.mp3","button_pressed":"1","test_part":"test","phrase":"10","condition":"guide","subject":"s10","trial_type":"audio-button-response","trial_index":42,"time_elapsed":185697,"internal_node_id":"0.0-1.0-0.15"},{"rt":2619.6000000054482,"stimulus":"audio/actual/s2-imitation-10_jean_saigne_beaucoup-4_cut1norm.mp3","button_pressed":"0","test_part":"test","phrase":"10","condition":"imitation","subject":"s2","trial_type":"audio-button-response","trial_index":44,"time_elapsed":188798,"internal_node_id":"0.0-1.0-0.16"},{"rt":1805.6799999976647,"stimulus":"audio/actual/s5-guide-10bis_jenseigne_beaucoup.mp3","button_pressed":"1","test_part":"test","phrase":"10bis","condition":"guide","subject":"s5","trial_type":"audio-button-response","trial_index":46,"time_elapsed":191409,"internal_node_id":"0.0-1.0-0.17"},{"rt":2343.990000001213,"stimulus":"audio/actual/s3-lecture-10bis_jenseigne_beaucoup-3_cut1norm.mp3","button_pressed":"1","test_part":"test","phrase":"10bis","condition":"lecture","subject":"s3","trial_type":"audio-button-response","trial_index":48,"time_elapsed":194243,"internal_node_id":"0.0-1.0-0.18"},{"rt":2172.1199999956298,"stimulus":"audio/actual/s6-blind-10bis_jenseigne_beaucoup.mp3","button_pressed":"0","test_part":"test","phrase":"10bis","condition":"blind","subject":"s6","trial_type":"audio-button-response","trial_index":50,"time_elapsed":196838,"internal_node_id":"0.0-1.0-0.19"},{"rt":3100.914999995439,"stimulus":"audio/actual/s10-blind-10bis_jenseigne_beaucoup.mp3","button_pressed":"1","test_part":"test","phrase":"10bis","condition":"blind","subject":"s10","trial_type":"audio-button-response","trial_index":52,"time_elapsed":200307,"internal_node_id":"0.0-1.0-0.20"},{"rt":3106.9749999951455,"stimulus":"audio/actual/s6-lecture-10_jean_saigne_beaucoup-1_cut1norm.mp3","button_pressed":"0","test_part":"test","phrase":"10","condition":"lecture","subject":"s6","trial_type":"audio-button-response","trial_index":54,"time_elapsed":203674,"internal_node_id":"0.0-1.0-0.21"},{"rt":3253.870000000461,"stimulus":"audio/actual/s10-imitation-10_jean_saigne_beaucoup-11_cut1norm.mp3","button_pressed":"0","test_part":"test","phrase":"10","condition":"imitation","subject":"s10","trial_type":"audio-button-response","trial_index":56,"time_elapsed":207204,"internal_node_id":"0.0-1.0-0.22"},{"rt":1772.3100000002887,"stimulus":"audio/actual/s7-imitation-10_jean_saigne_beaucoup-3_cut1norm.mp3","button_pressed":"0","test_part":"test","phrase":"10","condition":"imitation","subject":"s7","trial_type":"audio-button-response","trial_index":58,"time_elapsed":209353,"internal_node_id":"0.0-1.0-0.23"},{"rt":1554.7099999967031,"stimulus":"audio/actual/s8-imitation-10bis_jenseigne_beaucoup-11_cut1norm.mp3","button_pressed":"1","test_part":"test","phrase":"10bis","condition":"imitation","subject":"s8","trial_type":"audio-button-response","trial_index":60,"time_elapsed":211395,"internal_node_id":"0.0-1.0-0.24"},{"rt":1685.0500000000466,"stimulus":"audio/actual/s1-lecture-10bis_jenseigne_beaucoup-3_cut1norm.mp3","button_pressed":"1","test_part":"test","phrase":"10bis","condition":"lecture","subject":"s1","trial_type":"audio-button-response","trial_index":62,"time_elapsed":213408,"internal_node_id":"0.0-1.0-0.25"},{"rt":1717.4549999981537,"stimulus":"audio/actual/s8-imitation-10_jean_saigne_beaucoup-10_cut1norm.mp3","button_pressed":"0","test_part":"test","phrase":"10","condition":"imitation","subject":"s8","trial_type":"audio-button-response","trial_index":64,"time_elapsed":215345,"internal_node_id":"0.0-1.0-0.26"},{"rt":4558.619999996154,"stimulus":"audio/actual/s6-guide-10bis_jenseigne_beaucoup.mp3","button_pressed":"2","test_part":"test","phrase":"10bis","condition":"guide","subject":"s6","trial_type":"audio-button-response","trial_index":66,"time_elapsed":220145,"internal_node_id":"0.0-1.0-0.27"},{"rt":3911.309999995865,"stimulus":"audio/actual/s6-guide-10bis_jenseigne_beaucoup.mp3","button_pressed":"1","test_part":"test","phrase":"10bis","condition":"guide","subject":"s6","trial_type":"audio-button-response","trial_index":67,"time_elapsed":224060,"internal_node_id":"0.0-1.0-1.27-0.27"},{"rt":1931.0149999946589,"stimulus":"audio/actual/s3-blind-10_jean_saigne_beaucoup.mp3","button_pressed":"0","test_part":"test","phrase":"10","condition":"blind","subject":"s3","trial_type":"audio-button-response","trial_index":69,"time_elapsed":226230,"internal_node_id":"0.0-1.0-0.28"},{"rt":2137.2150000024703,"stimulus":"audio/actual/s6-guide-10_jean_saigne_beaucoup.mp3","button_pressed":"0","test_part":"test","phrase":"10","condition":"guide","subject":"s6","trial_type":"audio-button-response","trial_index":71,"time_elapsed":228791,"internal_node_id":"0.0-1.0-0.29"},{"rt":1539.1000000017812,"stimulus":"audio/actual/s7-blind-10_jean_saigne_beaucoup.mp3","button_pressed":"1","test_part":"test","phrase":"10","condition":"blind","subject":"s7","trial_type":"audio-button-response","trial_index":73,"time_elapsed":230554,"internal_node_id":"0.0-1.0-0.30"},{"rt":2041.5300000022398,"stimulus":"audio/actual/s6-blind-10_jean_saigne_beaucoup.mp3","button_pressed":"1","test_part":"test","phrase":"10","condition":"blind","subject":"s6","trial_type":"audio-button-response","trial_index":75,"time_elapsed":232826,"internal_node_id":"0.0-1.0-0.31"},{"rt":2559.784999997646,"stimulus":"audio/actual/s4-lecture-10bis_jenseigne_beaucoup-0_cut1norm.mp3","button_pressed":"0","test_part":"test","phrase":"10bis","condition":"lecture","subject":"s4","trial_type":"audio-button-response","trial_index":77,"time_elapsed":235640,"internal_node_id":"0.0-1.0-0.32"},{"rt":1749.8849999974482,"stimulus":"audio/actual/s10-lecture-10bis_jenseigne_beaucoup-11_cut1norm.mp3","button_pressed":"0","test_part":"test","phrase":"10bis","condition":"lecture","subject":"s10","trial_type":"audio-button-response","trial_index":79,"time_elapsed":237708,"internal_node_id":"0.0-1.0-0.33"},{"rt":2828.220000003057,"stimulus":"audio/actual/s1-guide-10_jean_saigne_beaucoup.mp3","button_pressed":"0","test_part":"test","phrase":"10","condition":"guide","subject":"s1","trial_type":"audio-button-response","trial_index":81,"time_elapsed":240842,"internal_node_id":"0.0-1.0-0.34"},{"rt":1353.1399999992573,"stimulus":"audio/actual/s5-imitation-10_jean_saigne_beaucoup-10_cut1norm.mp3","button_pressed":"0","test_part":"test","phrase":"10","condition":"imitation","subject":"s5","trial_type":"audio-button-response","trial_index":83,"time_elapsed":243353,"internal_node_id":"0.0-1.0-0.35"},{"rt":1151.3649999978952,"stimulus":"audio/actual/s1-imitation-10bis_jenseigne_beaucoup-10_cut1norm.mp3","button_pressed":"1","test_part":"test","phrase":"10bis","condition":"imitation","subject":"s1","trial_type":"audio-button-response","trial_index":85,"time_elapsed":244806,"internal_node_id":"0.0-1.0-0.36"},{"rt":1384.2149999982212,"stimulus":"audio/actual/s9-guide-10_jean_saigne_beaucoup.mp3","button_pressed":"1","test_part":"test","phrase":"10","condition":"guide","subject":"s9","trial_type":"audio-button-response","trial_index":87,"time_elapsed":246482,"internal_node_id":"0.0-1.0-0.37"},{"rt":1559.1549999953713,"stimulus":"audio/actual/s1-blind-10_jean_saigne_beaucoup.mp3","button_pressed":"0","test_part":"test","phrase":"10","condition":"blind","subject":"s1","trial_type":"audio-button-response","trial_index":89,"time_elapsed":248354,"internal_node_id":"0.0-1.0-0.38"},{"rt":2471.675000000687,"stimulus":"audio/actual/s9-guide-10bis_jenseigne_beaucoup.mp3","button_pressed":"0","test_part":"test","phrase":"10bis","condition":"guide","subject":"s9","trial_type":"audio-button-response","trial_index":91,"time_elapsed":251118,"internal_node_id":"0.0-1.0-0.39"},{"rt":2068.7899999975343,"stimulus":"audio/actual/s1-guide-10bis_jenseigne_beaucoup.mp3","button_pressed":"0","test_part":"test","phrase":"10bis","condition":"guide","subject":"s1","trial_type":"audio-button-response","trial_index":93,"time_elapsed":253388,"internal_node_id":"0.0-1.0-0.40"},{"rt":1428.2549999988987,"stimulus":"audio/actual/s9-imitation-10bis_jenseigne_beaucoup-5_cut1norm.mp3","button_pressed":"1","test_part":"test","phrase":"10bis","condition":"imitation","subject":"s9","trial_type":"audio-button-response","trial_index":95,"time_elapsed":255044,"internal_node_id":"0.0-1.0-0.41"},{"rt":2040.0699999954668,"stimulus":"audio/actual/s3-guide-10_jean_saigne_beaucoup.mp3","button_pressed":"0","test_part":"test","phrase":"10","condition":"guide","subject":"s3","trial_type":"audio-button-response","trial_index":97,"time_elapsed":257299,"internal_node_id":"0.0-1.0-0.42"},{"rt":1785.3099999992992,"stimulus":"audio/actual/s1-imitation-10_jean_saigne_beaucoup-11_cut1norm.mp3","button_pressed":"0","test_part":"test","phrase":"10","condition":"imitation","subject":"s1","trial_type":"audio-button-response","trial_index":99,"time_elapsed":259322,"internal_node_id":"0.0-1.0-0.43"},{"rt":1416.9700000056764,"stimulus":"audio/actual/s5-imitation-10bis_jenseigne_beaucoup-11_cut1norm.mp3","button_pressed":"1","test_part":"test","phrase":"10bis","condition":"imitation","subject":"s5","trial_type":"audio-button-response","trial_index":101,"time_elapsed":261029,"internal_node_id":"0.0-1.0-0.44"},{"rt":1172.9149999955553,"stimulus":"audio/actual/s2-guide-10bis_jenseigne_beaucoup.mp3","button_pressed":"1","test_part":"test","phrase":"10bis","condition":"guide","subject":"s2","trial_type":"audio-button-response","trial_index":103,"time_elapsed":262451,"internal_node_id":"0.0-1.0-0.45"},{"rt":1073.5449999992852,"stimulus":"audio/actual/s8-blind-10_jean_saigne_beaucoup.mp3","button_pressed":"1","test_part":"test","phrase":"10","condition":"blind","subject":"s8","trial_type":"audio-button-response","trial_index":105,"time_elapsed":263734,"internal_node_id":"0.0-1.0-0.46"},{"rt":2245.0150000004214,"stimulus":"audio/actual/s1-blind-10bis_jenseigne_beaucoup.mp3","button_pressed":"1","test_part":"test","phrase":"10bis","condition":"blind","subject":"s1","trial_type":"audio-button-response","trial_index":107,"time_elapsed":266264,"internal_node_id":"0.0-1.0-0.47"},{"rt":1684.5249999969383,"stimulus":"audio/actual/s6-imitation-10_jean_saigne_beaucoup-5_cut1norm.mp3","button_pressed":"0","test_part":"test","phrase":"10","condition":"imitation","subject":"s6","trial_type":"audio-button-response","trial_index":109,"time_elapsed":268216,"internal_node_id":"0.0-1.0-0.48"},{"rt":1865.5149999976857,"stimulus":"audio/actual/s5-guide-10_jean_saigne_beaucoup.mp3","button_pressed":"1","test_part":"test","phrase":"10","condition":"guide","subject":"s5","trial_type":"audio-button-response","trial_index":111,"time_elapsed":270329,"internal_node_id":"0.0-1.0-0.49"},{"rt":1655.704999997397,"stimulus":"audio/actual/s2-blind-10bis_jenseigne_beaucoup.mp3","button_pressed":"0","test_part":"test","phrase":"10bis","condition":"blind","subject":"s2","trial_type":"audio-button-response","trial_index":113,"time_elapsed":272349,"internal_node_id":"0.0-1.0-0.50"},{"rt":4028.9600000032806,"stimulus":"audio/actual/s4-blind-10bis_jenseigne_beaucoup.mp3","button_pressed":"2","test_part":"test","phrase":"10bis","condition":"blind","subject":"s4","trial_type":"audio-button-response","trial_index":115,"time_elapsed":276618,"internal_node_id":"0.0-1.0-0.51"},{"rt":1799.5049999954063,"stimulus":"audio/actual/s4-blind-10bis_jenseigne_beaucoup.mp3","button_pressed":"1","test_part":"test","phrase":"10bis","condition":"blind","subject":"s4","trial_type":"audio-button-response","trial_index":116,"time_elapsed":278421,"internal_node_id":"0.0-1.0-1.51-0.51"},{"rt":1835.2899999954388,"stimulus":"audio/actual/s2-lecture-10_jean_saigne_beaucoup-7_cut1norm.mp3","button_pressed":"0","test_part":"test","phrase":"10","condition":"lecture","subject":"s2","trial_type":"audio-button-response","trial_index":118,"time_elapsed":280520,"internal_node_id":"0.0-1.0-0.52"},{"rt":1837.0900000008987,"stimulus":"audio/actual/s5-blind-10_jean_saigne_beaucoup.mp3","button_pressed":"0","test_part":"test","phrase":"10","condition":"blind","subject":"s5","trial_type":"audio-button-response","trial_index":120,"time_elapsed":282702,"internal_node_id":"0.0-1.0-0.53"},{"rt":2278.344999998808,"stimulus":"audio/actual/s10-lecture-10_jean_saigne_beaucoup-10_cut1norm.mp3","button_pressed":"1","test_part":"test","phrase":"10","condition":"lecture","subject":"s10","trial_type":"audio-button-response","trial_index":122,"time_elapsed":285274,"internal_node_id":"0.0-1.0-0.54"},{"rt":2448.3600000021397,"stimulus":"audio/actual/s9-imitation-10_jean_saigne_beaucoup-4_cut1norm.mp3","button_pressed":"0","test_part":"test","phrase":"10","condition":"imitation","subject":"s9","trial_type":"audio-button-response","trial_index":124,"time_elapsed":287949,"internal_node_id":"0.0-1.0-0.55"},{"rt":1467.9850000029546,"stimulus":"audio/actual/s8-lecture-10_jean_saigne_beaucoup-10_cut1norm.mp3","button_pressed":"1","test_part":"test","phrase":"10","condition":"lecture","subject":"s8","trial_type":"audio-button-response","trial_index":126,"time_elapsed":289637,"internal_node_id":"0.0-1.0-0.56"},{"rt":1295.5699999947683,"stimulus":"audio/actual/s9-lecture-10bis_jenseigne_beaucoup-2_cut1norm.mp3","button_pressed":"1","test_part":"test","phrase":"10bis","condition":"lecture","subject":"s9","trial_type":"audio-button-response","trial_index":128,"time_elapsed":291190,"internal_node_id":"0.0-1.0-0.57"},{"rt":1710.2199999935692,"stimulus":"audio/actual/s2-blind-10_jean_saigne_beaucoup.mp3","button_pressed":"0","test_part":"test","phrase":"10","condition":"blind","subject":"s2","trial_type":"audio-button-response","trial_index":130,"time_elapsed":293204,"internal_node_id":"0.0-1.0-0.58"},{"rt":2729.574999997567,"stimulus":"audio/actual/s3-lecture-10_jean_saigne_beaucoup-2_cut1norm.mp3","button_pressed":"0","test_part":"test","phrase":"10","condition":"lecture","subject":"s3","trial_type":"audio-button-response","trial_index":132,"time_elapsed":296259,"internal_node_id":"0.0-1.0-0.59"},{"rt":1620.7799999974668,"stimulus":"audio/actual/s7-lecture-10_jean_saigne_beaucoup-8_cut1norm.mp3","button_pressed":"1","test_part":"test","phrase":"10","condition":"lecture","subject":"s7","trial_type":"audio-button-response","trial_index":134,"time_elapsed":298493,"internal_node_id":"0.0-1.0-0.60"},{"rt":2026.0100000014063,"stimulus":"audio/actual/s9-blind-10_jean_saigne_beaucoup.mp3","button_pressed":"1","test_part":"test","phrase":"10","condition":"blind","subject":"s9","trial_type":"audio-button-response","trial_index":136,"time_elapsed":301276,"internal_node_id":"0.0-1.0-0.61"},{"rt":1746.0700000010547,"stimulus":"audio/actual/s5-lecture-10_jean_saigne_beaucoup-5_cut1norm.mp3","button_pressed":"1","test_part":"test","phrase":"10","condition":"lecture","subject":"s5","trial_type":"audio-button-response","trial_index":138,"time_elapsed":303316,"internal_node_id":"0.0-1.0-0.62"},{"rt":1609.2500000013388,"stimulus":"audio/actual/s2-imitation-10bis_jenseigne_beaucoup-5_cut1norm.mp3","button_pressed":"1","test_part":"test","phrase":"10bis","condition":"imitation","subject":"s2","trial_type":"audio-button-response","trial_index":140,"time_elapsed":305210,"internal_node_id":"0.0-1.0-0.63"},{"rt":1155.2650000012363,"stimulus":"audio/actual/s7-blind-10bis_jenseigne_beaucoup.mp3","button_pressed":"1","test_part":"test","phrase":"10bis","condition":"blind","subject":"s7","trial_type":"audio-button-response","trial_index":142,"time_elapsed":306603,"internal_node_id":"0.0-1.0-0.64"},{"rt":2207.2100000004866,"stimulus":"audio/actual/s2-lecture-10bis_jenseigne_beaucoup-6_cut1norm.mp3","button_pressed":"0","test_part":"test","phrase":"10bis","condition":"lecture","subject":"s2","trial_type":"audio-button-response","trial_index":144,"time_elapsed":309054,"internal_node_id":"0.0-1.0-0.65"},{"rt":2177.445000001171,"stimulus":"audio/actual/s3-guide-10bis_jenseigne_beaucoup.mp3","button_pressed":"0","test_part":"test","phrase":"10bis","condition":"guide","subject":"s3","trial_type":"audio-button-response","trial_index":146,"time_elapsed":311486,"internal_node_id":"0.0-1.0-0.66"},{"rt":1628.805000000284,"stimulus":"audio/actual/s4-imitation-10bis_jenseigne_beaucoup-0_cut1norm.mp3","button_pressed":"1","test_part":"test","phrase":"10bis","condition":"imitation","subject":"s4","trial_type":"audio-button-response","trial_index":148,"time_elapsed":313385,"internal_node_id":"0.0-1.0-0.67"},{"rt":1739.9199999999837,"stimulus":"audio/actual/s7-guide-10_jean_saigne_beaucoup.mp3","button_pressed":"0","test_part":"test","phrase":"10","condition":"guide","subject":"s7","trial_type":"audio-button-response","trial_index":150,"time_elapsed":315432,"internal_node_id":"0.0-1.0-0.68"},{"rt":2111.850000001141,"stimulus":"audio/actual/s10-blind-10_jean_saigne_beaucoup.mp3","button_pressed":"0","test_part":"test","phrase":"10","condition":"blind","subject":"s10","trial_type":"audio-button-response","trial_index":152,"time_elapsed":317827,"internal_node_id":"0.0-1.0-0.69"},{"rt":3776.514999997744,"stimulus":"audio/actual/s9-lecture-10_jean_saigne_beaucoup-3_cut1norm.mp3","button_pressed":"0","test_part":"test","phrase":"10","condition":"lecture","subject":"s9","trial_type":"audio-button-response","trial_index":154,"time_elapsed":321878,"internal_node_id":"0.0-1.0-0.70"},{"rt":3236.6650000039954,"stimulus":"audio/actual/s10-guide-10bis_jenseigne_beaucoup.mp3","button_pressed":"0","test_part":"test","phrase":"10bis","condition":"guide","subject":"s10","trial_type":"audio-button-response","trial_index":156,"time_elapsed":325579,"internal_node_id":"0.0-1.0-0.71"},{"rt":1333.344999999099,"stimulus":"audio/actual/s6-imitation-10bis_jenseigne_beaucoup-4_cut1norm.mp3","button_pressed":"1","test_part":"test","phrase":"10bis","condition":"imitation","subject":"s6","trial_type":"audio-button-response","trial_index":158,"time_elapsed":327136,"internal_node_id":"0.0-1.0-0.72"},{"rt":1705.6599999996251,"stimulus":"audio/actual/s4-imitation-10_jean_saigne_beaucoup-1_cut1norm.mp3","button_pressed":"0","test_part":"test","phrase":"10","condition":"imitation","subject":"s4","trial_type":"audio-button-response","trial_index":160,"time_elapsed":329094,"internal_node_id":"0.0-1.0-0.73"},{"rt":1957.1749999959138,"stimulus":"audio/actual/s7-guide-10bis_jenseigne_beaucoup.mp3","button_pressed":"1","test_part":"test","phrase":"10bis","condition":"guide","subject":"s7","trial_type":"audio-button-response","trial_index":162,"time_elapsed":331362,"internal_node_id":"0.0-1.0-0.74"},{"rt":2511.3249999994878,"stimulus":"audio/actual/s8-guide-10bis_jenseigne_beaucoup.mp3","button_pressed":"1","test_part":"test","phrase":"10bis","condition":"guide","subject":"s8","trial_type":"audio-button-response","trial_index":164,"time_elapsed":334076,"internal_node_id":"0.0-1.0-0.75"},{"rt":1960.7800000012503,"stimulus":"audio/actual/s6-lecture-10bis_jenseigne_beaucoup-0_cut1norm.mp3","button_pressed":"0","test_part":"test","phrase":"10bis","condition":"lecture","subject":"s6","trial_type":"audio-button-response","trial_index":166,"time_elapsed":336204,"internal_node_id":"0.0-1.0-0.76"},{"rt":2560.409999998228,"stimulus":"audio/actual/s4-guide-10bis_jenseigne_beaucoup.mp3","button_pressed":"0","test_part":"test","phrase":"10bis","condition":"guide","subject":"s4","trial_type":"audio-button-response","trial_index":168,"time_elapsed":338951,"internal_node_id":"0.0-1.0-0.77"},{"rt":1474.145000000135,"stimulus":"audio/actual/s10-imitation-10bis_jenseigne_beaucoup-10_cut1norm.mp3","button_pressed":"1","test_part":"test","phrase":"10bis","condition":"imitation","subject":"s10","trial_type":"audio-button-response","trial_index":170,"time_elapsed":340624,"internal_node_id":"0.0-1.0-0.78"},{"rt":1462.4299999995856,"stimulus":"audio/actual/s3-imitation-10bis_jenseigne_beaucoup-3_cut1norm.mp3","button_pressed":"0","test_part":"test","phrase":"10bis","condition":"imitation","subject":"s3","trial_type":"audio-button-response","trial_index":172,"time_elapsed":342296,"internal_node_id":"0.0-1.0-0.79"}]