[{"rt":2935.670000006212,"stimulus":"audio/actual/s7-guide-10bis_jenseigne_beaucoup.mp3","button_pressed":"1","test_part":"test","phrase":"10bis","condition":"guide","subject":"s7","trial_type":"audio-button-response","trial_index":1,"time_elapsed":4928,"internal_node_id":"0.0-1.0-0.0"},{"rt":3118.515000009211,"stimulus":"audio/actual/s1-imitation-10_jean_saigne_beaucoup-11_cut1norm.mp3","button_pressed":"0","test_part":"test","phrase":"10","condition":"imitation","subject":"s1","trial_type":"audio-button-response","trial_index":3,"time_elapsed":8804,"internal_node_id":"0.0-1.0-0.1"},{"rt":2962.9649999988033,"stimulus":"audio/actual/s10-guide-10bis_jenseigne_beaucoup.mp3","button_pressed":"1","test_part":"test","phrase":"10bis","condition":"guide","subject":"s10","trial_type":"audio-button-response","trial_index":5,"time_elapsed":12617,"internal_node_id":"0.0-1.0-0.2"},{"rt":1914.9800000013784,"stimulus":"audio/actual/s7-blind-10bis_jenseigne_beaucoup.mp3","button_pressed":"1","test_part":"test","phrase":"10bis","condition":"blind","subject":"s7","trial_type":"audio-button-response","trial_index":7,"time_elapsed":15416,"internal_node_id":"0.0-1.0-0.3"},{"rt":1796.744999999646,"stimulus":"audio/actual/s8-guide-10_jean_saigne_beaucoup.mp3","button_pressed":"0","test_part":"test","phrase":"10","condition":"guide","subject":"s8","trial_type":"audio-button-response","trial_index":9,"time_elapsed":17866,"internal_node_id":"0.0-1.0-0.4"},{"rt":2086.940000008326,"stimulus":"audio/actual/s2-lecture-10bis_jenseigne_beaucoup-6_cut1norm.mp3","button_pressed":"1","test_part":"test","phrase":"10bis","condition":"lecture","subject":"s2","trial_type":"audio-button-response","trial_index":11,"time_elapsed":20716,"internal_node_id":"0.0-1.0-0.5"},{"rt":1498.77999999444,"stimulus":"audio/actual/s9-imitation-10_jean_saigne_beaucoup-4_cut1norm.mp3","button_pressed":"1","test_part":"test","phrase":"10","condition":"imitation","subject":"s9","trial_type":"audio-button-response","trial_index":13,"time_elapsed":23288,"internal_node_id":"0.0-1.0-0.6"},{"rt":1780.5499999958556,"stimulus":"audio/actual/s6-guide-10bis_jenseigne_beaucoup.mp3","button_pressed":"1","test_part":"test","phrase":"10bis","condition":"guide","subject":"s6","trial_type":"audio-button-response","trial_index":15,"time_elapsed":25745,"internal_node_id":"0.0-1.0-0.7"},{"rt":3662.884999997914,"stimulus":"audio/actual/s10-lecture-10_jean_saigne_beaucoup-10_cut1norm.mp3","button_pressed":"1","test_part":"test","phrase":"10","condition":"lecture","subject":"s10","trial_type":"audio-button-response","trial_index":17,"time_elapsed":30140,"internal_node_id":"0.0-1.0-0.8"},{"rt":2280.335000003106,"stimulus":"audio/actual/s3-imitation-10bis_jenseigne_beaucoup-3_cut1norm.mp3","button_pressed":"1","test_part":"test","phrase":"10bis","condition":"imitation","subject":"s3","trial_type":"audio-button-response","trial_index":19,"time_elapsed":32846,"internal_node_id":"0.0-1.0-0.9"},{"rt":4581.460000001243,"stimulus":"audio/actual/s2-blind-10bis_jenseigne_beaucoup.mp3","button_pressed":"1","test_part":"test","phrase":"10bis","condition":"blind","subject":"s2","trial_type":"audio-button-response","trial_index":21,"time_elapsed":37802,"internal_node_id":"0.0-1.0-0.10"},{"rt":2080.4150000039954,"stimulus":"audio/actual/s7-lecture-10bis_jenseigne_beaucoup-9_cut1norm.mp3","button_pressed":"1","test_part":"test","phrase":"10bis","condition":"lecture","subject":"s7","trial_type":"audio-button-response","trial_index":23,"time_elapsed":40293,"internal_node_id":"0.0-1.0-0.11"},{"rt":1349.3350000062492,"stimulus":"audio/actual/s5-blind-10_jean_saigne_beaucoup.mp3","button_pressed":"0","test_part":"test","phrase":"10","condition":"blind","subject":"s5","trial_type":"audio-button-response","trial_index":25,"time_elapsed":41994,"internal_node_id":"0.0-1.0-0.12"},{"rt":2597.80000000319,"stimulus":"audio/actual/s1-imitation-10bis_jenseigne_beaucoup-10_cut1norm.mp3","button_pressed":"1","test_part":"test","phrase":"10bis","condition":"imitation","subject":"s1","trial_type":"audio-button-response","trial_index":27,"time_elapsed":45026,"internal_node_id":"0.0-1.0-0.13"},{"rt":3929.340000002412,"stimulus":"audio/actual/s4-blind-10bis_jenseigne_beaucoup.mp3","button_pressed":"0","test_part":"test","phrase":"10bis","condition":"blind","subject":"s4","trial_type":"audio-button-response","trial_index":29,"time_elapsed":49325,"internal_node_id":"0.0-1.0-0.14"},{"rt":1597.1299999946496,"stimulus":"audio/actual/s8-lecture-10_jean_saigne_beaucoup-10_cut1norm.mp3","button_pressed":"0","test_part":"test","phrase":"10","condition":"lecture","subject":"s8","trial_type":"audio-button-response","trial_index":31,"time_elapsed":51353,"internal_node_id":"0.0-1.0-0.15"},{"rt":1961.1750000040047,"stimulus":"audio/actual/s6-blind-10bis_jenseigne_beaucoup.mp3","button_pressed":"1","test_part":"test","phrase":"10bis","condition":"blind","subject":"s6","trial_type":"audio-button-response","trial_index":33,"time_elapsed":55013,"internal_node_id":"0.0-1.0-0.16"},{"rt":3807.055000012042,"stimulus":"audio/actual/s1-blind-10bis_jenseigne_beaucoup.mp3","button_pressed":"0","test_part":"test","phrase":"10bis","condition":"blind","subject":"s1","trial_type":"audio-button-response","trial_index":35,"time_elapsed":59203,"internal_node_id":"0.0-1.0-0.17"},{"rt":1753.1449999951292,"stimulus":"audio/actual/s9-blind-10_jean_saigne_beaucoup.mp3","button_pressed":"0","test_part":"test","phrase":"10","condition":"blind","subject":"s9","trial_type":"audio-button-response","trial_index":37,"time_elapsed":61421,"internal_node_id":"0.0-1.0-0.18"},{"rt":1579.4299999979557,"stimulus":"audio/actual/s4-imitation-10bis_jenseigne_beaucoup-0_cut1norm.mp3","button_pressed":"1","test_part":"test","phrase":"10bis","condition":"imitation","subject":"s4","trial_type":"audio-button-response","trial_index":39,"time_elapsed":63423,"internal_node_id":"0.0-1.0-0.19"},{"rt":43779.590000005555,"stimulus":"audio/actual/s10-guide-10_jean_saigne_beaucoup.mp3","button_pressed":"2","test_part":"test","phrase":"10","condition":"guide","subject":"s10","trial_type":"audio-button-response","trial_index":41,"time_elapsed":109838,"internal_node_id":"0.0-1.0-0.20"},{"rt":14718.990000008489,"stimulus":"audio/actual/s10-guide-10_jean_saigne_beaucoup.mp3","button_pressed":"1","test_part":"test","phrase":"10","condition":"guide","subject":"s10","trial_type":"audio-button-response","trial_index":42,"time_elapsed":124559,"internal_node_id":"0.0-1.0-1.20-0.20"},{"rt":2247.399999992922,"stimulus":"audio/actual/s9-lecture-10bis_jenseigne_beaucoup-2_cut1norm.mp3","button_pressed":"0","test_part":"test","phrase":"10bis","condition":"lecture","subject":"s9","trial_type":"audio-button-response","trial_index":44,"time_elapsed":127751,"internal_node_id":"0.0-1.0-0.21"},{"rt":3305.3649999928894,"stimulus":"audio/actual/s8-blind-10_jean_saigne_beaucoup.mp3","button_pressed":"0","test_part":"test","phrase":"10","condition":"blind","subject":"s8","trial_type":"audio-button-response","trial_index":46,"time_elapsed":131888,"internal_node_id":"0.0-1.0-0.22"},{"rt":2641.1649999936344,"stimulus":"audio/actual/s2-blind-10_jean_saigne_beaucoup.mp3","button_pressed":"1","test_part":"test","phrase":"10","condition":"blind","subject":"s2","trial_type":"audio-button-response","trial_index":48,"time_elapsed":134992,"internal_node_id":"0.0-1.0-0.23"},{"rt":2456.9550000014715,"stimulus":"audio/actual/s5-lecture-10bis_jenseigne_beaucoup-4_cut1norm.mp3","button_pressed":"1","test_part":"test","phrase":"10bis","condition":"lecture","subject":"s5","trial_type":"audio-button-response","trial_index":50,"time_elapsed":138032,"internal_node_id":"0.0-1.0-0.24"},{"rt":1439.6149999956833,"stimulus":"audio/actual/s9-blind-10bis_jenseigne_beaucoup.mp3","button_pressed":"1","test_part":"test","phrase":"10bis","condition":"blind","subject":"s9","trial_type":"audio-button-response","trial_index":52,"time_elapsed":140126,"internal_node_id":"0.0-1.0-0.25"},{"rt":2619.4850000028964,"stimulus":"audio/actual/s5-imitation-10bis_jenseigne_beaucoup-11_cut1norm.mp3","button_pressed":"1","test_part":"test","phrase":"10bis","condition":"imitation","subject":"s5","trial_type":"audio-button-response","trial_index":54,"time_elapsed":143154,"internal_node_id":"0.0-1.0-0.26"},{"rt":1801.4399999956368,"stimulus":"audio/actual/s10-imitation-10_jean_saigne_beaucoup-11_cut1norm.mp3","button_pressed":"0","test_part":"test","phrase":"10","condition":"imitation","subject":"s10","trial_type":"audio-button-response","trial_index":56,"time_elapsed":145312,"internal_node_id":"0.0-1.0-0.27"},{"rt":4194.905000011204,"stimulus":"audio/actual/s6-blind-10_jean_saigne_beaucoup.mp3","button_pressed":"0","test_part":"test","phrase":"10","condition":"blind","subject":"s6","trial_type":"audio-button-response","trial_index":58,"time_elapsed":149890,"internal_node_id":"0.0-1.0-0.28"},{"rt":1997.0999999932246,"stimulus":"audio/actual/s3-lecture-10bis_jenseigne_beaucoup-3_cut1norm.mp3","button_pressed":"1","test_part":"test","phrase":"10bis","condition":"lecture","subject":"s3","trial_type":"audio-button-response","trial_index":60,"time_elapsed":152356,"internal_node_id":"0.0-1.0-0.29"},{"rt":2307.5600000011036,"stimulus":"audio/actual/s2-guide-10bis_jenseigne_beaucoup.mp3","button_pressed":"1","test_part":"test","phrase":"10bis","condition":"guide","subject":"s2","trial_type":"audio-button-response","trial_index":62,"time_elapsed":155274,"internal_node_id":"0.0-1.0-0.30"},{"rt":3416.4049999963026,"stimulus":"audio/actual/s6-imitation-10_jean_saigne_beaucoup-5_cut1norm.mp3","button_pressed":"0","test_part":"test","phrase":"10","condition":"imitation","subject":"s6","trial_type":"audio-button-response","trial_index":64,"time_elapsed":159200,"internal_node_id":"0.0-1.0-0.31"},{"rt":1437.4550000065938,"stimulus":"audio/actual/s5-lecture-10_jean_saigne_beaucoup-5_cut1norm.mp3","button_pressed":"0","test_part":"test","phrase":"10","condition":"lecture","subject":"s5","trial_type":"audio-button-response","trial_index":66,"time_elapsed":160964,"internal_node_id":"0.0-1.0-0.32"},{"rt":1381.0650000086753,"stimulus":"audio/actual/s4-lecture-10_jean_saigne_beaucoup-1_cut1norm.mp3","button_pressed":"0","test_part":"test","phrase":"10","condition":"lecture","subject":"s4","trial_type":"audio-button-response","trial_index":68,"time_elapsed":164404,"internal_node_id":"0.0-1.0-0.33"},{"rt":1828.575000006822,"stimulus":"audio/actual/s2-lecture-10_jean_saigne_beaucoup-7_cut1norm.mp3","button_pressed":"0","test_part":"test","phrase":"10","condition":"lecture","subject":"s2","trial_type":"audio-button-response","trial_index":70,"time_elapsed":167003,"internal_node_id":"0.0-1.0-0.34"},{"rt":1657.4249999976018,"stimulus":"audio/actual/s4-lecture-10bis_jenseigne_beaucoup-0_cut1norm.mp3","button_pressed":"1","test_part":"test","phrase":"10bis","condition":"lecture","subject":"s4","trial_type":"audio-button-response","trial_index":72,"time_elapsed":169159,"internal_node_id":"0.0-1.0-0.35"},{"rt":1403.2699999952456,"stimulus":"audio/actual/s8-imitation-10bis_jenseigne_beaucoup-11_cut1norm.mp3","button_pressed":"1","test_part":"test","phrase":"10bis","condition":"imitation","subject":"s8","trial_type":"audio-button-response","trial_index":74,"time_elapsed":171201,"internal_node_id":"0.0-1.0-0.36"},{"rt":1703.590000004624,"stimulus":"audio/actual/s2-imitation-10_jean_saigne_beaucoup-4_cut1norm.mp3","button_pressed":"0","test_part":"test","phrase":"10","condition":"imitation","subject":"s2","trial_type":"audio-button-response","trial_index":76,"time_elapsed":173413,"internal_node_id":"0.0-1.0-0.37"},{"rt":1659.7150000015972,"stimulus":"audio/actual/s6-lecture-10bis_jenseigne_beaucoup-0_cut1norm.mp3","button_pressed":"1","test_part":"test","phrase":"10bis","condition":"lecture","subject":"s6","trial_type":"audio-button-response","trial_index":78,"time_elapsed":176009,"internal_node_id":"0.0-1.0-0.38"},{"rt":1541.5350000112085,"stimulus":"audio/actual/s3-guide-10bis_jenseigne_beaucoup.mp3","button_pressed":"0","test_part":"test","phrase":"10bis","condition":"guide","subject":"s3","trial_type":"audio-button-response","trial_index":80,"time_elapsed":177939,"internal_node_id":"0.0-1.0-0.39"},{"rt":2275.1599999901373,"stimulus":"audio/actual/s6-lecture-10_jean_saigne_beaucoup-1_cut1norm.mp3","button_pressed":"0","test_part":"test","phrase":"10","condition":"lecture","subject":"s6","trial_type":"audio-button-response","trial_index":82,"time_elapsed":180753,"internal_node_id":"0.0-1.0-0.40"},{"rt":2421.5100000001257,"stimulus":"audio/actual/s8-guide-10bis_jenseigne_beaucoup.mp3","button_pressed":"0","test_part":"test","phrase":"10bis","condition":"guide","subject":"s8","trial_type":"audio-button-response","trial_index":84,"time_elapsed":183595,"internal_node_id":"0.0-1.0-0.41"},{"rt":2043.3800000027986,"stimulus":"audio/actual/s2-guide-10_jean_saigne_beaucoup.mp3","button_pressed":"0","test_part":"test","phrase":"10","condition":"guide","subject":"s2","trial_type":"audio-button-response","trial_index":86,"time_elapsed":186210,"internal_node_id":"0.0-1.0-0.42"},{"rt":1775.4650000133552,"stimulus":"audio/actual/s3-guide-10_jean_saigne_beaucoup.mp3","button_pressed":"0","test_part":"test","phrase":"10","condition":"guide","subject":"s3","trial_type":"audio-button-response","trial_index":88,"time_elapsed":188293,"internal_node_id":"0.0-1.0-0.43"},{"rt":2037.2999999963213,"stimulus":"audio/actual/s1-lecture-10_jean_saigne_beaucoup-2_cut1norm.mp3","button_pressed":"1","test_part":"test","phrase":"10","condition":"lecture","subject":"s1","trial_type":"audio-button-response","trial_index":90,"time_elapsed":191067,"internal_node_id":"0.0-1.0-0.44"},{"rt":1273.5699999902863,"stimulus":"audio/actual/s6-guide-10_jean_saigne_beaucoup.mp3","button_pressed":"1","test_part":"test","phrase":"10","condition":"guide","subject":"s6","trial_type":"audio-button-response","trial_index":92,"time_elapsed":192823,"internal_node_id":"0.0-1.0-0.45"},{"rt":3540.1350000029197,"stimulus":"audio/actual/s4-blind-10_jean_saigne_beaucoup.mp3","button_pressed":"1","test_part":"test","phrase":"10","condition":"blind","subject":"s4","trial_type":"audio-button-response","trial_index":94,"time_elapsed":196841,"internal_node_id":"0.0-1.0-0.46"},{"rt":1373.2149999996182,"stimulus":"audio/actual/s7-imitation-10_jean_saigne_beaucoup-3_cut1norm.mp3","button_pressed":"0","test_part":"test","phrase":"10","condition":"imitation","subject":"s7","trial_type":"audio-button-response","trial_index":96,"time_elapsed":198579,"internal_node_id":"0.0-1.0-0.47"},{"rt":2247.8400000109104,"stimulus":"audio/actual/s4-guide-10bis_jenseigne_beaucoup.mp3","button_pressed":"0","test_part":"test","phrase":"10bis","condition":"guide","subject":"s4","trial_type":"audio-button-response","trial_index":98,"time_elapsed":201309,"internal_node_id":"0.0-1.0-0.48"},{"rt":2250.834999998915,"stimulus":"audio/actual/s5-blind-10bis_jenseigne_beaucoup.mp3","button_pressed":"1","test_part":"test","phrase":"10bis","condition":"blind","subject":"s5","trial_type":"audio-button-response","trial_index":100,"time_elapsed":204088,"internal_node_id":"0.0-1.0-0.49"},{"rt":1697.3250000010012,"stimulus":"audio/actual/s7-lecture-10_jean_saigne_beaucoup-8_cut1norm.mp3","button_pressed":"0","test_part":"test","phrase":"10","condition":"lecture","subject":"s7","trial_type":"audio-button-response","trial_index":102,"time_elapsed":206230,"internal_node_id":"0.0-1.0-0.50"},{"rt":1803.700000004028,"stimulus":"audio/actual/s3-blind-10_jean_saigne_beaucoup.mp3","button_pressed":"0","test_part":"test","phrase":"10","condition":"blind","subject":"s3","trial_type":"audio-button-response","trial_index":104,"time_elapsed":208553,"internal_node_id":"0.0-1.0-0.51"},{"rt":1846.785000001546,"stimulus":"audio/actual/s1-guide-10bis_jenseigne_beaucoup.mp3","button_pressed":"1","test_part":"test","phrase":"10bis","condition":"guide","subject":"s1","trial_type":"audio-button-response","trial_index":106,"time_elapsed":210836,"internal_node_id":"0.0-1.0-0.52"},{"rt":1671.7700000008335,"stimulus":"audio/actual/s8-imitation-10_jean_saigne_beaucoup-10_cut1norm.mp3","button_pressed":"0","test_part":"test","phrase":"10","condition":"imitation","subject":"s8","trial_type":"audio-button-response","trial_index":108,"time_elapsed":212836,"internal_node_id":"0.0-1.0-0.53"},{"rt":1481.4400000032037,"stimulus":"audio/actual/s3-imitation-10_jean_saigne_beaucoup-2_cut1norm.mp3","button_pressed":"0","test_part":"test","phrase":"10","condition":"imitation","subject":"s3","trial_type":"audio-button-response","trial_index":110,"time_elapsed":214903,"internal_node_id":"0.0-1.0-0.54"},{"rt":2405.4749999922933,"stimulus":"audio/actual/s4-guide-10_jean_saigne_beaucoup.mp3","button_pressed":"0","test_part":"test","phrase":"10","condition":"guide","subject":"s4","trial_type":"audio-button-response","trial_index":112,"time_elapsed":217986,"internal_node_id":"0.0-1.0-0.55"},{"rt":1288.3549999969546,"stimulus":"audio/actual/s9-guide-10_jean_saigne_beaucoup.mp3","button_pressed":"1","test_part":"test","phrase":"10","condition":"guide","subject":"s9","trial_type":"audio-button-response","trial_index":114,"time_elapsed":219765,"internal_node_id":"0.0-1.0-0.56"},{"rt":3968.4850000048755,"stimulus":"audio/actual/s10-lecture-10bis_jenseigne_beaucoup-11_cut1norm.mp3","button_pressed":"2","test_part":"test","phrase":"10bis","condition":"lecture","subject":"s10","trial_type":"audio-button-response","trial_index":116,"time_elapsed":224205,"internal_node_id":"0.0-1.0-0.57"},{"rt":1081.2150000128895,"stimulus":"audio/actual/s10-lecture-10bis_jenseigne_beaucoup-11_cut1norm.mp3","button_pressed":"1","test_part":"test","phrase":"10bis","condition":"lecture","subject":"s10","trial_type":"audio-button-response","trial_index":117,"time_elapsed":225288,"internal_node_id":"0.0-1.0-1.57-0.57"},{"rt":1457.300000009127,"stimulus":"audio/actual/s2-imitation-10bis_jenseigne_beaucoup-5_cut1norm.mp3","button_pressed":"1","test_part":"test","phrase":"10bis","condition":"imitation","subject":"s2","trial_type":"audio-button-response","trial_index":119,"time_elapsed":227102,"internal_node_id":"0.0-1.0-0.58"},{"rt":1427.5049999996554,"stimulus":"audio/actual/s1-guide-10_jean_saigne_beaucoup.mp3","button_pressed":"0","test_part":"test","phrase":"10","condition":"guide","subject":"s1","trial_type":"audio-button-response","trial_index":121,"time_elapsed":228960,"internal_node_id":"0.0-1.0-0.59"},{"rt":1481.5850000013597,"stimulus":"audio/actual/s8-lecture-10bis_jenseigne_beaucoup-11_cut1norm.mp3","button_pressed":"1","test_part":"test","phrase":"10bis","condition":"lecture","subject":"s8","trial_type":"audio-button-response","trial_index":123,"time_elapsed":230982,"internal_node_id":"0.0-1.0-0.60"},{"rt":2565.6699999963166,"stimulus":"audio/actual/s7-guide-10_jean_saigne_beaucoup.mp3","button_pressed":"1","test_part":"test","phrase":"10","condition":"guide","subject":"s7","trial_type":"audio-button-response","trial_index":125,"time_elapsed":233906,"internal_node_id":"0.0-1.0-0.61"},{"rt":1437.275000003865,"stimulus":"audio/actual/s1-lecture-10bis_jenseigne_beaucoup-3_cut1norm.mp3","button_pressed":"0","test_part":"test","phrase":"10bis","condition":"lecture","subject":"s1","trial_type":"audio-button-response","trial_index":127,"time_elapsed":235970,"internal_node_id":"0.0-1.0-0.62"},{"rt":1258.270000005723,"stimulus":"audio/actual/s10-imitation-10bis_jenseigne_beaucoup-10_cut1norm.mp3","button_pressed":"0","test_part":"test","phrase":"10bis","condition":"imitation","subject":"s10","trial_type":"audio-button-response","trial_index":129,"time_elapsed":237623,"internal_node_id":"0.0-1.0-0.63"},{"rt":1373.3599999977741,"stimulus":"audio/actual/s9-lecture-10_jean_saigne_beaucoup-3_cut1norm.mp3","button_pressed":"0","test_part":"test","phrase":"10","condition":"lecture","subject":"s9","trial_type":"audio-button-response","trial_index":131,"time_elapsed":240529,"internal_node_id":"0.0-1.0-0.64"},{"rt":5014.244999998482,"stimulus":"audio/actual/s10-blind-10bis_jenseigne_beaucoup.mp3","button_pressed":"1","test_part":"test","phrase":"10bis","condition":"blind","subject":"s10","trial_type":"audio-button-response","trial_index":133,"time_elapsed":246219,"internal_node_id":"0.0-1.0-0.65"},{"rt":2521.229999998468,"stimulus":"audio/actual/s9-imitation-10bis_jenseigne_beaucoup-5_cut1norm.mp3","button_pressed":"1","test_part":"test","phrase":"10bis","condition":"imitation","subject":"s9","trial_type":"audio-button-response","trial_index":135,"time_elapsed":249019,"internal_node_id":"0.0-1.0-0.66"},{"rt":1637.8600000025472,"stimulus":"audio/actual/s1-blind-10_jean_saigne_beaucoup.mp3","button_pressed":"0","test_part":"test","phrase":"10","condition":"blind","subject":"s1","trial_type":"audio-button-response","trial_index":137,"time_elapsed":251015,"internal_node_id":"0.0-1.0-0.67"},{"rt":1213.2850000052713,"stimulus":"audio/actual/s5-imitation-10_jean_saigne_beaucoup-10_cut1norm.mp3","button_pressed":"0","test_part":"test","phrase":"10","condition":"imitation","subject":"s5","trial_type":"audio-button-response","trial_index":139,"time_elapsed":252663,"internal_node_id":"0.0-1.0-0.68"},{"rt":1666.0750000010012,"stimulus":"audio/actual/s6-imitation-10bis_jenseigne_beaucoup-4_cut1norm.mp3","button_pressed":"1","test_part":"test","phrase":"10bis","condition":"imitation","subject":"s6","trial_type":"audio-button-response","trial_index":141,"time_elapsed":254875,"internal_node_id":"0.0-1.0-0.69"},{"rt":2134.9449999979697,"stimulus":"audio/actual/s5-guide-10_jean_saigne_beaucoup.mp3","button_pressed":"0","test_part":"test","phrase":"10","condition":"guide","subject":"s5","trial_type":"audio-button-response","trial_index":143,"time_elapsed":257320,"internal_node_id":"0.0-1.0-0.70"},{"rt":1159.2349999991711,"stimulus":"audio/actual/s3-lecture-10_jean_saigne_beaucoup-2_cut1norm.mp3","button_pressed":"0","test_part":"test","phrase":"10","condition":"lecture","subject":"s3","trial_type":"audio-button-response","trial_index":145,"time_elapsed":258833,"internal_node_id":"0.0-1.0-0.71"},{"rt":1499.5900000067195,"stimulus":"audio/actual/s7-imitation-10bis_jenseigne_beaucoup-2_cut1norm.mp3","button_pressed":"1","test_part":"test","phrase":"10bis","condition":"imitation","subject":"s7","trial_type":"audio-button-response","trial_index":147,"time_elapsed":261141,"internal_node_id":"0.0-1.0-0.72"},{"rt":1775.0899999955436,"stimulus":"audio/actual/s10-blind-10_jean_saigne_beaucoup.mp3","button_pressed":"0","test_part":"test","phrase":"10","condition":"blind","subject":"s10","trial_type":"audio-button-response","trial_index":149,"time_elapsed":263289,"internal_node_id":"0.0-1.0-0.73"},{"rt":1472.505000012461,"stimulus":"audio/actual/s9-guide-10bis_jenseigne_beaucoup.mp3","button_pressed":"1","test_part":"test","phrase":"10bis","condition":"guide","subject":"s9","trial_type":"audio-button-response","trial_index":151,"time_elapsed":265195,"internal_node_id":"0.0-1.0-0.74"},{"rt":1951.6750000038883,"stimulus":"audio/actual/s3-blind-10bis_jenseigne_beaucoup.mp3","button_pressed":"1","test_part":"test","phrase":"10bis","condition":"blind","subject":"s3","trial_type":"audio-button-response","trial_index":153,"time_elapsed":267545,"internal_node_id":"0.0-1.0-0.75"},{"rt":1718.045000001439,"stimulus":"audio/actual/s8-blind-10bis_jenseigne_beaucoup.mp3","button_pressed":"1","test_part":"test","phrase":"10bis","condition":"blind","subject":"s8","trial_type":"audio-button-response","trial_index":155,"time_elapsed":269888,"internal_node_id":"0.0-1.0-0.76"},{"rt":3368.065000002389,"stimulus":"audio/actual/s5-guide-10bis_jenseigne_beaucoup.mp3","button_pressed":"1","test_part":"test","phrase":"10bis","condition":"guide","subject":"s5","trial_type":"audio-button-response","trial_index":157,"time_elapsed":273801,"internal_node_id":"0.0-1.0-0.77"},{"rt":1753.3350000012433,"stimulus":"audio/actual/s4-imitation-10_jean_saigne_beaucoup-1_cut1norm.mp3","button_pressed":"0","test_part":"test","phrase":"10","condition":"imitation","subject":"s4","trial_type":"audio-button-response","trial_index":159,"time_elapsed":276490,"internal_node_id":"0.0-1.0-0.78"},{"rt":1857.640000001993,"stimulus":"audio/actual/s7-blind-10_jean_saigne_beaucoup.mp3","button_pressed":"1","test_part":"test","phrase":"10","condition":"blind","subject":"s7","trial_type":"audio-button-response","trial_index":161,"time_elapsed":279026,"internal_node_id":"0.0-1.0-0.79"}]