[{"rt":3561.2649999093264,"stimulus":"audio/actual/s8-blind-10_jean_saigne_beaucoup.mp3","button_pressed":"0","test_part":"test","phrase":"10","condition":"blind","subject":"s8","trial_type":"audio-button-response","trial_index":1,"time_elapsed":48566,"internal_node_id":"0.0-1.0-0.0"},{"rt":2233.375000068918,"stimulus":"audio/actual/s6-guide-10bis_jenseigne_beaucoup.mp3","button_pressed":"1","test_part":"test","phrase":"10bis","condition":"guide","subject":"s6","trial_type":"audio-button-response","trial_index":3,"time_elapsed":53566,"internal_node_id":"0.0-1.0-0.1"},{"rt":1567.990000010468,"stimulus":"audio/actual/s8-guide-10bis_jenseigne_beaucoup.mp3","button_pressed":"1","test_part":"test","phrase":"10bis","condition":"guide","subject":"s8","trial_type":"audio-button-response","trial_index":5,"time_elapsed":55733,"internal_node_id":"0.0-1.0-0.2"},{"rt":1872.4350000265986,"stimulus":"audio/actual/s2-imitation-10bis_jenseigne_beaucoup-5_cut1norm.mp3","button_pressed":"1","test_part":"test","phrase":"10bis","condition":"imitation","subject":"s2","trial_type":"audio-button-response","trial_index":7,"time_elapsed":58221,"internal_node_id":"0.0-1.0-0.3"},{"rt":1767.7000000840053,"stimulus":"audio/actual/s6-blind-10bis_jenseigne_beaucoup.mp3","button_pressed":"0","test_part":"test","phrase":"10bis","condition":"blind","subject":"s6","trial_type":"audio-button-response","trial_index":9,"time_elapsed":60597,"internal_node_id":"0.0-1.0-0.4"},{"rt":1760.260000010021,"stimulus":"audio/actual/s7-imitation-10_jean_saigne_beaucoup-3_cut1norm.mp3","button_pressed":"0","test_part":"test","phrase":"10","condition":"imitation","subject":"s7","trial_type":"audio-button-response","trial_index":11,"time_elapsed":62877,"internal_node_id":"0.0-1.0-0.5"},{"rt":1994.319999939762,"stimulus":"audio/actual/s1-lecture-10_jean_saigne_beaucoup-2_cut1norm.mp3","button_pressed":"1","test_part":"test","phrase":"10","condition":"lecture","subject":"s1","trial_type":"audio-button-response","trial_index":13,"time_elapsed":65389,"internal_node_id":"0.0-1.0-0.6"},{"rt":1956.499999971129,"stimulus":"audio/actual/s2-imitation-10_jean_saigne_beaucoup-4_cut1norm.mp3","button_pressed":"0","test_part":"test","phrase":"10","condition":"imitation","subject":"s2","trial_type":"audio-button-response","trial_index":15,"time_elapsed":67845,"internal_node_id":"0.0-1.0-0.7"},{"rt":1910.9950000420213,"stimulus":"audio/actual/s1-lecture-10bis_jenseigne_beaucoup-3_cut1norm.mp3","button_pressed":"1","test_part":"test","phrase":"10bis","condition":"lecture","subject":"s1","trial_type":"audio-button-response","trial_index":17,"time_elapsed":70117,"internal_node_id":"0.0-1.0-0.8"},{"rt":4565.289999940433,"stimulus":"audio/actual/s10-blind-10_jean_saigne_beaucoup.mp3","button_pressed":"1","test_part":"test","phrase":"10","condition":"blind","subject":"s10","trial_type":"audio-button-response","trial_index":19,"time_elapsed":75293,"internal_node_id":"0.0-1.0-0.9"},{"rt":2380.0250000786036,"stimulus":"audio/actual/s9-blind-10_jean_saigne_beaucoup.mp3","button_pressed":"1","test_part":"test","phrase":"10","condition":"blind","subject":"s9","trial_type":"audio-button-response","trial_index":21,"time_elapsed":78013,"internal_node_id":"0.0-1.0-0.10"},{"rt":2222.620000015013,"stimulus":"audio/actual/s4-lecture-10_jean_saigne_beaucoup-1_cut1norm.mp3","button_pressed":"0","test_part":"test","phrase":"10","condition":"lecture","subject":"s4","trial_type":"audio-button-response","trial_index":23,"time_elapsed":80797,"internal_node_id":"0.0-1.0-0.11"},{"rt":1477.210000040941,"stimulus":"audio/actual/s7-guide-10bis_jenseigne_beaucoup.mp3","button_pressed":"1","test_part":"test","phrase":"10bis","condition":"guide","subject":"s7","trial_type":"audio-button-response","trial_index":25,"time_elapsed":82645,"internal_node_id":"0.0-1.0-0.12"},{"rt":1976.0000000242144,"stimulus":"audio/actual/s9-lecture-10bis_jenseigne_beaucoup-2_cut1norm.mp3","button_pressed":"1","test_part":"test","phrase":"10bis","condition":"lecture","subject":"s9","trial_type":"audio-button-response","trial_index":27,"time_elapsed":85037,"internal_node_id":"0.0-1.0-0.13"},{"rt":1960.3099999949336,"stimulus":"audio/actual/s7-guide-10_jean_saigne_beaucoup.mp3","button_pressed":"1","test_part":"test","phrase":"10","condition":"guide","subject":"s7","trial_type":"audio-button-response","trial_index":29,"time_elapsed":87413,"internal_node_id":"0.0-1.0-0.14"},{"rt":1647.910000057891,"stimulus":"audio/actual/s8-lecture-10bis_jenseigne_beaucoup-11_cut1norm.mp3","button_pressed":"0","test_part":"test","phrase":"10bis","condition":"lecture","subject":"s8","trial_type":"audio-button-response","trial_index":31,"time_elapsed":89525,"internal_node_id":"0.0-1.0-0.15"},{"rt":2323.534999974072,"stimulus":"audio/actual/s1-blind-10_jean_saigne_beaucoup.mp3","button_pressed":"1","test_part":"test","phrase":"10","condition":"blind","subject":"s1","trial_type":"audio-button-response","trial_index":33,"time_elapsed":92389,"internal_node_id":"0.0-1.0-0.16"},{"rt":2382.2200000286102,"stimulus":"audio/actual/s2-lecture-10bis_jenseigne_beaucoup-6_cut1norm.mp3","button_pressed":"1","test_part":"test","phrase":"10bis","condition":"lecture","subject":"s2","trial_type":"audio-button-response","trial_index":35,"time_elapsed":95309,"internal_node_id":"0.0-1.0-0.17"},{"rt":1585.1950000505894,"stimulus":"audio/actual/s7-lecture-10_jean_saigne_beaucoup-8_cut1norm.mp3","button_pressed":"1","test_part":"test","phrase":"10","condition":"lecture","subject":"s7","trial_type":"audio-button-response","trial_index":37,"time_elapsed":97301,"internal_node_id":"0.0-1.0-0.18"},{"rt":1623.2650000602007,"stimulus":"audio/actual/s8-imitation-10bis_jenseigne_beaucoup-11_cut1norm.mp3","button_pressed":"1","test_part":"test","phrase":"10bis","condition":"imitation","subject":"s8","trial_type":"audio-button-response","trial_index":39,"time_elapsed":99261,"internal_node_id":"0.0-1.0-0.19"},{"rt":2405.62500001397,"stimulus":"audio/actual/s4-guide-10bis_jenseigne_beaucoup.mp3","button_pressed":"0","test_part":"test","phrase":"10bis","condition":"guide","subject":"s4","trial_type":"audio-button-response","trial_index":41,"time_elapsed":102021,"internal_node_id":"0.0-1.0-0.20"},{"rt":2230.1949999528006,"stimulus":"audio/actual/s6-guide-10_jean_saigne_beaucoup.mp3","button_pressed":"0","test_part":"test","phrase":"10","condition":"guide","subject":"s6","trial_type":"audio-button-response","trial_index":43,"time_elapsed":104525,"internal_node_id":"0.0-1.0-0.21"},{"rt":1803.47000004258,"stimulus":"audio/actual/s2-guide-10bis_jenseigne_beaucoup.mp3","button_pressed":"1","test_part":"test","phrase":"10bis","condition":"guide","subject":"s2","trial_type":"audio-button-response","trial_index":45,"time_elapsed":106701,"internal_node_id":"0.0-1.0-0.22"},{"rt":2478.2250000862405,"stimulus":"audio/actual/s6-blind-10_jean_saigne_beaucoup.mp3","button_pressed":"1","test_part":"test","phrase":"10","condition":"blind","subject":"s6","trial_type":"audio-button-response","trial_index":47,"time_elapsed":109597,"internal_node_id":"0.0-1.0-0.23"},{"rt":2187.749999924563,"stimulus":"audio/actual/s10-blind-10bis_jenseigne_beaucoup.mp3","button_pressed":"1","test_part":"test","phrase":"10bis","condition":"blind","subject":"s10","trial_type":"audio-button-response","trial_index":49,"time_elapsed":112229,"internal_node_id":"0.0-1.0-0.24"},{"rt":1545.505000045523,"stimulus":"audio/actual/s6-imitation-10bis_jenseigne_beaucoup-4_cut1norm.mp3","button_pressed":"1","test_part":"test","phrase":"10bis","condition":"imitation","subject":"s6","trial_type":"audio-button-response","trial_index":51,"time_elapsed":114125,"internal_node_id":"0.0-1.0-0.25"},{"rt":2147.1000000601634,"stimulus":"audio/actual/s9-lecture-10_jean_saigne_beaucoup-3_cut1norm.mp3","button_pressed":"0","test_part":"test","phrase":"10","condition":"lecture","subject":"s9","trial_type":"audio-button-response","trial_index":53,"time_elapsed":117205,"internal_node_id":"0.0-1.0-0.26"},{"rt":1897.415000014007,"stimulus":"audio/actual/s10-imitation-10_jean_saigne_beaucoup-11_cut1norm.mp3","button_pressed":"0","test_part":"test","phrase":"10","condition":"imitation","subject":"s10","trial_type":"audio-button-response","trial_index":55,"time_elapsed":119821,"internal_node_id":"0.0-1.0-0.27"},{"rt":2177.1699999226257,"stimulus":"audio/actual/s3-guide-10_jean_saigne_beaucoup.mp3","button_pressed":"0","test_part":"test","phrase":"10","condition":"guide","subject":"s3","trial_type":"audio-button-response","trial_index":57,"time_elapsed":122389,"internal_node_id":"0.0-1.0-0.28"},{"rt":2041.5299999294803,"stimulus":"audio/actual/s2-blind-10_jean_saigne_beaucoup.mp3","button_pressed":"0","test_part":"test","phrase":"10","condition":"blind","subject":"s2","trial_type":"audio-button-response","trial_index":59,"time_elapsed":124876,"internal_node_id":"0.0-1.0-0.29"},{"rt":1895.4300000332296,"stimulus":"audio/actual/s9-blind-10bis_jenseigne_beaucoup.mp3","button_pressed":"0","test_part":"test","phrase":"10bis","condition":"blind","subject":"s9","trial_type":"audio-button-response","trial_index":61,"time_elapsed":127349,"internal_node_id":"0.0-1.0-0.30"},{"rt":2039.0850000549108,"stimulus":"audio/actual/s1-imitation-10bis_jenseigne_beaucoup-10_cut1norm.mp3","button_pressed":"1","test_part":"test","phrase":"10bis","condition":"imitation","subject":"s1","trial_type":"audio-button-response","trial_index":63,"time_elapsed":129749,"internal_node_id":"0.0-1.0-0.31"},{"rt":2212.859999970533,"stimulus":"audio/actual/s3-lecture-10_jean_saigne_beaucoup-2_cut1norm.mp3","button_pressed":"0","test_part":"test","phrase":"10","condition":"lecture","subject":"s3","trial_type":"audio-button-response","trial_index":65,"time_elapsed":132301,"internal_node_id":"0.0-1.0-0.32"},{"rt":2311.335000093095,"stimulus":"audio/actual/s1-guide-10_jean_saigne_beaucoup.mp3","button_pressed":"0","test_part":"test","phrase":"10","condition":"guide","subject":"s1","trial_type":"audio-button-response","trial_index":67,"time_elapsed":134973,"internal_node_id":"0.0-1.0-0.33"},{"rt":1462.7450000261888,"stimulus":"audio/actual/s4-imitation-10bis_jenseigne_beaucoup-0_cut1norm.mp3","button_pressed":"1","test_part":"test","phrase":"10bis","condition":"imitation","subject":"s4","trial_type":"audio-button-response","trial_index":69,"time_elapsed":136901,"internal_node_id":"0.0-1.0-0.34"},{"rt":2169.6549999760464,"stimulus":"audio/actual/s3-blind-10_jean_saigne_beaucoup.mp3","button_pressed":"0","test_part":"test","phrase":"10","condition":"blind","subject":"s3","trial_type":"audio-button-response","trial_index":71,"time_elapsed":139396,"internal_node_id":"0.0-1.0-0.35"},{"rt":1964.8850000230595,"stimulus":"audio/actual/s2-blind-10bis_jenseigne_beaucoup.mp3","button_pressed":"1","test_part":"test","phrase":"10bis","condition":"blind","subject":"s2","trial_type":"audio-button-response","trial_index":73,"time_elapsed":141733,"internal_node_id":"0.0-1.0-0.36"},{"rt":1357.6699999393895,"stimulus":"audio/actual/s7-lecture-10bis_jenseigne_beaucoup-9_cut1norm.mp3","button_pressed":"1","test_part":"test","phrase":"10bis","condition":"lecture","subject":"s7","trial_type":"audio-button-response","trial_index":75,"time_elapsed":143429,"internal_node_id":"0.0-1.0-0.37"},{"rt":3189.589999965392,"stimulus":"audio/actual/s4-lecture-10bis_jenseigne_beaucoup-0_cut1norm.mp3","button_pressed":"1","test_part":"test","phrase":"10bis","condition":"lecture","subject":"s4","trial_type":"audio-button-response","trial_index":77,"time_elapsed":146989,"internal_node_id":"0.0-1.0-0.38"},{"rt":1738.7500000186265,"stimulus":"audio/actual/s8-blind-10bis_jenseigne_beaucoup.mp3","button_pressed":"1","test_part":"test","phrase":"10bis","condition":"blind","subject":"s8","trial_type":"audio-button-response","trial_index":79,"time_elapsed":149116,"internal_node_id":"0.0-1.0-0.39"},{"rt":1705.5299999192357,"stimulus":"audio/actual/s1-imitation-10_jean_saigne_beaucoup-11_cut1norm.mp3","button_pressed":"0","test_part":"test","phrase":"10","condition":"imitation","subject":"s1","trial_type":"audio-button-response","trial_index":81,"time_elapsed":151245,"internal_node_id":"0.0-1.0-0.40"},{"rt":1806.019999901764,"stimulus":"audio/actual/s9-guide-10_jean_saigne_beaucoup.mp3","button_pressed":"0","test_part":"test","phrase":"10","condition":"guide","subject":"s9","trial_type":"audio-button-response","trial_index":83,"time_elapsed":153373,"internal_node_id":"0.0-1.0-0.41"},{"rt":3101.9549999618903,"stimulus":"audio/actual/s4-blind-10_jean_saigne_beaucoup.mp3","button_pressed":"0","test_part":"test","phrase":"10","condition":"blind","subject":"s4","trial_type":"audio-button-response","trial_index":85,"time_elapsed":156860,"internal_node_id":"0.0-1.0-0.42"},{"rt":2451.9299999810755,"stimulus":"audio/actual/s1-guide-10bis_jenseigne_beaucoup.mp3","button_pressed":"0","test_part":"test","phrase":"10bis","condition":"guide","subject":"s1","trial_type":"audio-button-response","trial_index":87,"time_elapsed":159628,"internal_node_id":"0.0-1.0-0.43"},{"rt":1658.750000060536,"stimulus":"audio/actual/s8-lecture-10_jean_saigne_beaucoup-10_cut1norm.mp3","button_pressed":"0","test_part":"test","phrase":"10","condition":"lecture","subject":"s8","trial_type":"audio-button-response","trial_index":89,"time_elapsed":161916,"internal_node_id":"0.0-1.0-0.44"},{"rt":1847.1450000070035,"stimulus":"audio/actual/s4-imitation-10_jean_saigne_beaucoup-1_cut1norm.mp3","button_pressed":"0","test_part":"test","phrase":"10","condition":"imitation","subject":"s4","trial_type":"audio-button-response","trial_index":91,"time_elapsed":164260,"internal_node_id":"0.0-1.0-0.45"},{"rt":1553.444999968633,"stimulus":"audio/actual/s5-blind-10_jean_saigne_beaucoup.mp3","button_pressed":"0","test_part":"test","phrase":"10","condition":"blind","subject":"s5","trial_type":"audio-button-response","trial_index":93,"time_elapsed":166300,"internal_node_id":"0.0-1.0-0.46"},{"rt":2074.224999989383,"stimulus":"audio/actual/s3-imitation-10bis_jenseigne_beaucoup-3_cut1norm.mp3","button_pressed":"1","test_part":"test","phrase":"10bis","condition":"imitation","subject":"s3","trial_type":"audio-button-response","trial_index":95,"time_elapsed":168860,"internal_node_id":"0.0-1.0-0.47"},{"rt":1311.030000098981,"stimulus":"audio/actual/s5-lecture-10bis_jenseigne_beaucoup-4_cut1norm.mp3","button_pressed":"1","test_part":"test","phrase":"10bis","condition":"lecture","subject":"s5","trial_type":"audio-button-response","trial_index":97,"time_elapsed":170516,"internal_node_id":"0.0-1.0-0.48"},{"rt":1966.6700001107529,"stimulus":"audio/actual/s3-blind-10bis_jenseigne_beaucoup.mp3","button_pressed":"1","test_part":"test","phrase":"10bis","condition":"blind","subject":"s3","trial_type":"audio-button-response","trial_index":99,"time_elapsed":172828,"internal_node_id":"0.0-1.0-0.49"},{"rt":1821.6900000115857,"stimulus":"audio/actual/s5-lecture-10_jean_saigne_beaucoup-5_cut1norm.mp3","button_pressed":"0","test_part":"test","phrase":"10","condition":"lecture","subject":"s5","trial_type":"audio-button-response","trial_index":101,"time_elapsed":175388,"internal_node_id":"0.0-1.0-0.50"},{"rt":8401.409999933094,"stimulus":"audio/actual/s8-imitation-10_jean_saigne_beaucoup-10_cut1norm.mp3","button_pressed":"0","test_part":"test","phrase":"10","condition":"imitation","subject":"s8","trial_type":"audio-button-response","trial_index":103,"time_elapsed":184172,"internal_node_id":"0.0-1.0-0.51"},{"rt":2615.529999951832,"stimulus":"audio/actual/s10-guide-10bis_jenseigne_beaucoup.mp3","button_pressed":"1","test_part":"test","phrase":"10bis","condition":"guide","subject":"s10","trial_type":"audio-button-response","trial_index":105,"time_elapsed":189316,"internal_node_id":"0.0-1.0-0.52"},{"rt":1676.75500002224,"stimulus":"audio/actual/s6-lecture-10bis_jenseigne_beaucoup-0_cut1norm.mp3","button_pressed":"0","test_part":"test","phrase":"10bis","condition":"lecture","subject":"s6","trial_type":"audio-button-response","trial_index":107,"time_elapsed":192044,"internal_node_id":"0.0-1.0-0.53"},{"rt":1394.715000060387,"stimulus":"audio/actual/s10-imitation-10bis_jenseigne_beaucoup-10_cut1norm.mp3","button_pressed":"0","test_part":"test","phrase":"10bis","condition":"imitation","subject":"s10","trial_type":"audio-button-response","trial_index":109,"time_elapsed":194084,"internal_node_id":"0.0-1.0-0.54"},{"rt":1980.7850000215694,"stimulus":"audio/actual/s3-lecture-10bis_jenseigne_beaucoup-3_cut1norm.mp3","button_pressed":"1","test_part":"test","phrase":"10bis","condition":"lecture","subject":"s3","trial_type":"audio-button-response","trial_index":111,"time_elapsed":196724,"internal_node_id":"0.0-1.0-0.55"},{"rt":2051.119999960065,"stimulus":"audio/actual/s10-guide-10_jean_saigne_beaucoup.mp3","button_pressed":"0","test_part":"test","phrase":"10","condition":"guide","subject":"s10","trial_type":"audio-button-response","trial_index":113,"time_elapsed":201500,"internal_node_id":"0.0-1.0-0.56"},{"rt":2262.4650000361726,"stimulus":"audio/actual/s4-guide-10_jean_saigne_beaucoup.mp3","button_pressed":"0","test_part":"test","phrase":"10","condition":"guide","subject":"s4","trial_type":"audio-button-response","trial_index":115,"time_elapsed":205244,"internal_node_id":"0.0-1.0-0.57"},{"rt":2337.7000000327826,"stimulus":"audio/actual/s6-lecture-10_jean_saigne_beaucoup-1_cut1norm.mp3","button_pressed":"0","test_part":"test","phrase":"10","condition":"lecture","subject":"s6","trial_type":"audio-button-response","trial_index":117,"time_elapsed":208492,"internal_node_id":"0.0-1.0-0.58"},{"rt":3122.8649999247864,"stimulus":"audio/actual/s5-guide-10bis_jenseigne_beaucoup.mp3","button_pressed":"0","test_part":"test","phrase":"10bis","condition":"guide","subject":"s5","trial_type":"audio-button-response","trial_index":119,"time_elapsed":212044,"internal_node_id":"0.0-1.0-0.59"},{"rt":1644.2800000077114,"stimulus":"audio/actual/s7-blind-10_jean_saigne_beaucoup.mp3","button_pressed":"0","test_part":"test","phrase":"10","condition":"blind","subject":"s7","trial_type":"audio-button-response","trial_index":121,"time_elapsed":214620,"internal_node_id":"0.0-1.0-0.60"},{"rt":2170.0150000397116,"stimulus":"audio/actual/s5-guide-10_jean_saigne_beaucoup.mp3","button_pressed":"0","test_part":"test","phrase":"10","condition":"guide","subject":"s5","trial_type":"audio-button-response","trial_index":123,"time_elapsed":217204,"internal_node_id":"0.0-1.0-0.61"},{"rt":4927.674999926239,"stimulus":"audio/actual/s3-imitation-10_jean_saigne_beaucoup-2_cut1norm.mp3","button_pressed":"0","test_part":"test","phrase":"10","condition":"imitation","subject":"s3","trial_type":"audio-button-response","trial_index":125,"time_elapsed":222948,"internal_node_id":"0.0-1.0-0.62"},{"rt":2906.074999948032,"stimulus":"audio/actual/s8-guide-10_jean_saigne_beaucoup.mp3","button_pressed":"0","test_part":"test","phrase":"10","condition":"guide","subject":"s8","trial_type":"audio-button-response","trial_index":127,"time_elapsed":227276,"internal_node_id":"0.0-1.0-0.63"},{"rt":2836.269999970682,"stimulus":"audio/actual/s10-lecture-10_jean_saigne_beaucoup-10_cut1norm.mp3","button_pressed":"1","test_part":"test","phrase":"10","condition":"lecture","subject":"s10","trial_type":"audio-button-response","trial_index":129,"time_elapsed":230844,"internal_node_id":"0.0-1.0-0.64"},{"rt":1374.3999999715015,"stimulus":"audio/actual/s9-guide-10bis_jenseigne_beaucoup.mp3","button_pressed":"1","test_part":"test","phrase":"10bis","condition":"guide","subject":"s9","trial_type":"audio-button-response","trial_index":131,"time_elapsed":232564,"internal_node_id":"0.0-1.0-0.65"},{"rt":2406.855000066571,"stimulus":"audio/actual/s2-lecture-10_jean_saigne_beaucoup-7_cut1norm.mp3","button_pressed":"0","test_part":"test","phrase":"10","condition":"lecture","subject":"s2","trial_type":"audio-button-response","trial_index":133,"time_elapsed":235356,"internal_node_id":"0.0-1.0-0.66"},{"rt":2077.1050000330433,"stimulus":"audio/actual/s5-imitation-10_jean_saigne_beaucoup-10_cut1norm.mp3","button_pressed":"0","test_part":"test","phrase":"10","condition":"imitation","subject":"s5","trial_type":"audio-button-response","trial_index":135,"time_elapsed":237804,"internal_node_id":"0.0-1.0-0.67"},{"rt":1614.3450000090525,"stimulus":"audio/actual/s9-imitation-10bis_jenseigne_beaucoup-5_cut1norm.mp3","button_pressed":"1","test_part":"test","phrase":"10bis","condition":"imitation","subject":"s9","trial_type":"audio-button-response","trial_index":137,"time_elapsed":239732,"internal_node_id":"0.0-1.0-0.68"},{"rt":1356.0499999439344,"stimulus":"audio/actual/s5-imitation-10bis_jenseigne_beaucoup-11_cut1norm.mp3","button_pressed":"1","test_part":"test","phrase":"10bis","condition":"imitation","subject":"s5","trial_type":"audio-button-response","trial_index":139,"time_elapsed":241564,"internal_node_id":"0.0-1.0-0.69"},{"rt":1412.9699999466538,"stimulus":"audio/actual/s9-imitation-10_jean_saigne_beaucoup-4_cut1norm.mp3","button_pressed":"0","test_part":"test","phrase":"10","condition":"imitation","subject":"s9","trial_type":"audio-button-response","trial_index":141,"time_elapsed":243468,"internal_node_id":"0.0-1.0-0.70"},{"rt":1598.3199999900535,"stimulus":"audio/actual/s2-guide-10_jean_saigne_beaucoup.mp3","button_pressed":"0","test_part":"test","phrase":"10","condition":"guide","subject":"s2","trial_type":"audio-button-response","trial_index":143,"time_elapsed":245452,"internal_node_id":"0.0-1.0-0.71"},{"rt":1751.5300000086427,"stimulus":"audio/actual/s3-guide-10bis_jenseigne_beaucoup.mp3","button_pressed":"0","test_part":"test","phrase":"10bis","condition":"guide","subject":"s3","trial_type":"audio-button-response","trial_index":145,"time_elapsed":247676,"internal_node_id":"0.0-1.0-0.72"},{"rt":1356.4250000054017,"stimulus":"audio/actual/s7-imitation-10bis_jenseigne_beaucoup-2_cut1norm.mp3","button_pressed":"1","test_part":"test","phrase":"10bis","condition":"imitation","subject":"s7","trial_type":"audio-button-response","trial_index":147,"time_elapsed":249284,"internal_node_id":"0.0-1.0-0.73"},{"rt":1486.5900001022965,"stimulus":"audio/actual/s10-lecture-10bis_jenseigne_beaucoup-11_cut1norm.mp3","button_pressed":"1","test_part":"test","phrase":"10bis","condition":"lecture","subject":"s10","trial_type":"audio-button-response","trial_index":149,"time_elapsed":251092,"internal_node_id":"0.0-1.0-0.74"},{"rt":2240.78999995254,"stimulus":"audio/actual/s1-blind-10bis_jenseigne_beaucoup.mp3","button_pressed":"1","test_part":"test","phrase":"10bis","condition":"blind","subject":"s1","trial_type":"audio-button-response","trial_index":151,"time_elapsed":253755,"internal_node_id":"0.0-1.0-0.75"},{"rt":1395.7099999533966,"stimulus":"audio/actual/s5-blind-10bis_jenseigne_beaucoup.mp3","button_pressed":"1","test_part":"test","phrase":"10bis","condition":"blind","subject":"s5","trial_type":"audio-button-response","trial_index":153,"time_elapsed":255492,"internal_node_id":"0.0-1.0-0.76"},{"rt":1452.9799999436364,"stimulus":"audio/actual/s7-blind-10bis_jenseigne_beaucoup.mp3","button_pressed":"1","test_part":"test","phrase":"10bis","condition":"blind","subject":"s7","trial_type":"audio-button-response","trial_index":155,"time_elapsed":257196,"internal_node_id":"0.0-1.0-0.77"},{"rt":1552.2150000324473,"stimulus":"audio/actual/s6-imitation-10_jean_saigne_beaucoup-5_cut1norm.mp3","button_pressed":"0","test_part":"test","phrase":"10","condition":"imitation","subject":"s6","trial_type":"audio-button-response","trial_index":157,"time_elapsed":259036,"internal_node_id":"0.0-1.0-0.78"},{"rt":1436.5649999817833,"stimulus":"audio/actual/s4-blind-10bis_jenseigne_beaucoup.mp3","button_pressed":"1","test_part":"test","phrase":"10bis","condition":"blind","subject":"s4","trial_type":"audio-button-response","trial_index":159,"time_elapsed":260844,"internal_node_id":"0.0-1.0-0.79"}]